subj,session,trial,rt,object_response,category,condition,imagename
deit_sinsup,1,1,NaN,truck,airplane,NaN,airplane1-bicycle2.png
deit_sinsup,1,2,NaN,clock,airplane,NaN,airplane1-chair2.png
deit_sinsup,1,3,NaN,airplane,airplane,NaN,airplane1-clock1.png
deit_sinsup,1,4,NaN,chair,airplane,NaN,airplane1-elephant1.png
deit_sinsup,1,5,NaN,airplane,airplane,NaN,airplane10-airplane1.png
deit_sinsup,1,6,NaN,cat,airplane,NaN,airplane10-bear3.png
deit_sinsup,1,7,NaN,oven,airplane,NaN,airplane10-boat3.png
deit_sinsup,1,8,NaN,knife,airplane,NaN,airplane10-car3.png
deit_sinsup,1,9,NaN,knife,airplane,NaN,airplane10-cat2.png
deit_sinsup,1,10,NaN,knife,airplane,NaN,airplane10-dog3.png
deit_sinsup,1,11,NaN,airplane,airplane,NaN,airplane10-elephant1.png
deit_sinsup,1,12,NaN,clock,airplane,NaN,airplane10-knife3.png
deit_sinsup,1,13,NaN,airplane,airplane,NaN,airplane10-oven2.png
deit_sinsup,1,14,NaN,car,airplane,NaN,airplane10-truck1.png
deit_sinsup,1,15,NaN,chair,airplane,NaN,airplane2-bear1.png
deit_sinsup,1,16,NaN,oven,airplane,NaN,airplane2-bicycle1.png
deit_sinsup,1,17,NaN,knife,airplane,NaN,airplane2-bird3.png
deit_sinsup,1,18,NaN,boat,airplane,NaN,airplane2-bottle1.png
deit_sinsup,1,19,NaN,chair,airplane,NaN,airplane2-cat1.png
deit_sinsup,1,20,NaN,knife,airplane,NaN,airplane2-dog1.png
deit_sinsup,1,21,NaN,clock,airplane,NaN,airplane3-airplane2.png
deit_sinsup,1,22,NaN,clock,airplane,NaN,airplane3-car1.png
deit_sinsup,1,23,NaN,elephant,airplane,NaN,airplane3-cat1.png
deit_sinsup,1,24,NaN,boat,airplane,NaN,airplane3-chair3.png
deit_sinsup,1,25,NaN,bird,airplane,NaN,airplane3-clock1.png
deit_sinsup,1,26,NaN,bear,airplane,NaN,airplane3-dog1.png
deit_sinsup,1,27,NaN,keyboard,airplane,NaN,airplane3-elephant1.png
deit_sinsup,1,28,NaN,oven,airplane,NaN,airplane3-keyboard2.png
deit_sinsup,1,29,NaN,airplane,airplane,NaN,airplane3-oven1.png
deit_sinsup,1,30,NaN,chair,airplane,NaN,airplane4-airplane1.png
deit_sinsup,1,31,NaN,bear,airplane,NaN,airplane4-bear3.png
deit_sinsup,1,32,NaN,bottle,airplane,NaN,airplane4-bicycle2.png
deit_sinsup,1,33,NaN,cat,airplane,NaN,airplane4-bird3.png
deit_sinsup,1,34,NaN,boat,airplane,NaN,airplane4-boat3.png
deit_sinsup,1,35,NaN,chair,airplane,NaN,airplane4-bottle1.png
deit_sinsup,1,36,NaN,knife,airplane,NaN,airplane4-car1.png
deit_sinsup,1,37,NaN,knife,airplane,NaN,airplane4-cat3.png
deit_sinsup,1,38,NaN,dog,airplane,NaN,airplane4-dog2.png
deit_sinsup,1,39,NaN,knife,airplane,NaN,airplane4-elephant1.png
deit_sinsup,1,40,NaN,chair,airplane,NaN,airplane4-keyboard3.png
deit_sinsup,1,41,NaN,elephant,airplane,NaN,airplane4-knife1.png
deit_sinsup,1,42,NaN,truck,airplane,NaN,airplane4-truck2.png
deit_sinsup,1,43,NaN,cat,airplane,NaN,airplane5-bear2.png
deit_sinsup,1,44,NaN,oven,airplane,NaN,airplane5-bicycle1.png
deit_sinsup,1,45,NaN,airplane,airplane,NaN,airplane5-bird2.png
deit_sinsup,1,46,NaN,airplane,airplane,NaN,airplane5-boat3.png
deit_sinsup,1,47,NaN,airplane,airplane,NaN,airplane5-bottle3.png
deit_sinsup,1,48,NaN,airplane,airplane,NaN,airplane5-chair3.png
deit_sinsup,1,49,NaN,cat,airplane,NaN,airplane5-dog3.png
deit_sinsup,1,50,NaN,truck,airplane,NaN,airplane5-knife1.png
deit_sinsup,1,51,NaN,airplane,airplane,NaN,airplane5-oven3.png
deit_sinsup,1,52,NaN,bird,airplane,NaN,airplane6-bear3.png
deit_sinsup,1,53,NaN,clock,airplane,NaN,airplane6-bottle2.png
deit_sinsup,1,54,NaN,airplane,airplane,NaN,airplane6-chair3.png
deit_sinsup,1,55,NaN,knife,airplane,NaN,airplane6-keyboard3.png
deit_sinsup,1,56,NaN,clock,airplane,NaN,airplane6-knife1.png
deit_sinsup,1,57,NaN,airplane,airplane,NaN,airplane7-airplane3.png
deit_sinsup,1,58,NaN,airplane,airplane,NaN,airplane7-bird3.png
deit_sinsup,1,59,NaN,airplane,airplane,NaN,airplane7-boat2.png
deit_sinsup,1,60,NaN,clock,airplane,NaN,airplane7-bottle3.png
deit_sinsup,1,61,NaN,knife,airplane,NaN,airplane7-car1.png
deit_sinsup,1,62,NaN,knife,airplane,NaN,airplane7-cat3.png
deit_sinsup,1,63,NaN,knife,airplane,NaN,airplane7-clock3.png
deit_sinsup,1,64,NaN,knife,airplane,NaN,airplane7-keyboard1.png
deit_sinsup,1,65,NaN,keyboard,airplane,NaN,airplane7-truck1.png
deit_sinsup,1,66,NaN,oven,airplane,NaN,airplane8-bicycle3.png
deit_sinsup,1,67,NaN,oven,airplane,NaN,airplane8-bird1.png
deit_sinsup,1,68,NaN,keyboard,airplane,NaN,airplane8-chair1.png
deit_sinsup,1,69,NaN,cat,airplane,NaN,airplane8-clock2.png
deit_sinsup,1,70,NaN,airplane,airplane,NaN,airplane8-elephant3.png
deit_sinsup,1,71,NaN,oven,airplane,NaN,airplane8-oven2.png
deit_sinsup,1,72,NaN,airplane,airplane,NaN,airplane8-truck3.png
deit_sinsup,1,73,NaN,airplane,airplane,NaN,airplane9-airplane2.png
deit_sinsup,1,74,NaN,airplane,airplane,NaN,airplane9-boat1.png
deit_sinsup,1,75,NaN,knife,airplane,NaN,airplane9-car2.png
deit_sinsup,1,76,NaN,airplane,airplane,NaN,airplane9-clock1.png
deit_sinsup,1,77,NaN,airplane,airplane,NaN,airplane9-keyboard2.png
deit_sinsup,1,78,NaN,clock,airplane,NaN,airplane9-knife3.png
deit_sinsup,1,79,NaN,oven,airplane,NaN,airplane9-oven2.png
deit_sinsup,1,80,NaN,keyboard,airplane,NaN,airplane9-truck1.png
deit_sinsup,1,81,NaN,bear,bear,NaN,bear1-airplane3.png
deit_sinsup,1,82,NaN,elephant,bear,NaN,bear1-bear3.png
deit_sinsup,1,83,NaN,cat,bear,NaN,bear1-bicycle3.png
deit_sinsup,1,84,NaN,bear,bear,NaN,bear1-bird2.png
deit_sinsup,1,85,NaN,cat,bear,NaN,bear1-chair2.png
deit_sinsup,1,86,NaN,bear,bear,NaN,bear1-clock2.png
deit_sinsup,1,87,NaN,elephant,bear,NaN,bear1-elephant1.png
deit_sinsup,1,88,NaN,cat,bear,NaN,bear10-bear2.png
deit_sinsup,1,89,NaN,dog,bear,NaN,bear10-bottle1.png
deit_sinsup,1,90,NaN,clock,bear,NaN,bear10-car2.png
deit_sinsup,1,91,NaN,cat,bear,NaN,bear10-cat2.png
deit_sinsup,1,92,NaN,chair,bear,NaN,bear10-chair2.png
deit_sinsup,1,93,NaN,dog,bear,NaN,bear10-clock1.png
deit_sinsup,1,94,NaN,bear,bear,NaN,bear10-elephant1.png
deit_sinsup,1,95,NaN,clock,bear,NaN,bear10-keyboard3.png
deit_sinsup,1,96,NaN,clock,bear,NaN,bear10-knife2.png
deit_sinsup,1,97,NaN,chair,bear,NaN,bear10-oven1.png
deit_sinsup,1,98,NaN,chair,bear,NaN,bear10-truck1.png
deit_sinsup,1,99,NaN,bear,bear,NaN,bear2-airplane1.png
deit_sinsup,1,100,NaN,bear,bear,NaN,bear2-bird3.png
deit_sinsup,1,101,NaN,elephant,bear,NaN,bear2-car2.png
deit_sinsup,1,102,NaN,bear,bear,NaN,bear2-cat2.png
deit_sinsup,1,103,NaN,bear,bear,NaN,bear2-dog1.png
deit_sinsup,1,104,NaN,bird,bear,NaN,bear2-elephant1.png
deit_sinsup,1,105,NaN,elephant,bear,NaN,bear2-keyboard2.png
deit_sinsup,1,106,NaN,bear,bear,NaN,bear2-knife2.png
deit_sinsup,1,107,NaN,bear,bear,NaN,bear2-oven1.png
deit_sinsup,1,108,NaN,elephant,bear,NaN,bear3-airplane1.png
deit_sinsup,1,109,NaN,bear,bear,NaN,bear3-bicycle2.png
deit_sinsup,1,110,NaN,bear,bear,NaN,bear3-bird3.png
deit_sinsup,1,111,NaN,bear,bear,NaN,bear3-car2.png
deit_sinsup,1,112,NaN,bear,bear,NaN,bear3-cat1.png
deit_sinsup,1,113,NaN,clock,bear,NaN,bear3-chair2.png
deit_sinsup,1,114,NaN,bear,bear,NaN,bear3-dog3.png
deit_sinsup,1,115,NaN,keyboard,bear,NaN,bear3-keyboard2.png
deit_sinsup,1,116,NaN,chair,bear,NaN,bear3-truck3.png
deit_sinsup,1,117,NaN,bear,bear,NaN,bear4-boat2.png
deit_sinsup,1,118,NaN,truck,bear,NaN,bear4-car3.png
deit_sinsup,1,119,NaN,bear,bear,NaN,bear4-cat3.png
deit_sinsup,1,120,NaN,dog,bear,NaN,bear4-clock3.png
deit_sinsup,1,121,NaN,cat,bear,NaN,bear4-elephant2.png
deit_sinsup,1,122,NaN,dog,bear,NaN,bear4-keyboard3.png
deit_sinsup,1,123,NaN,chair,bear,NaN,bear4-knife1.png
deit_sinsup,1,124,NaN,oven,bear,NaN,bear4-oven2.png
deit_sinsup,1,125,NaN,oven,bear,NaN,bear4-truck3.png
deit_sinsup,1,126,NaN,bear,bear,NaN,bear5-airplane3.png
deit_sinsup,1,127,NaN,dog,bear,NaN,bear5-bicycle3.png
deit_sinsup,1,128,NaN,bear,bear,NaN,bear5-bird1.png
deit_sinsup,1,129,NaN,bear,bear,NaN,bear5-boat2.png
deit_sinsup,1,130,NaN,bear,bear,NaN,bear5-bottle1.png
deit_sinsup,1,131,NaN,elephant,bear,NaN,bear5-chair1.png
deit_sinsup,1,132,NaN,bear,bear,NaN,bear5-oven3.png
deit_sinsup,1,133,NaN,cat,bear,NaN,bear6-bear1.png
deit_sinsup,1,134,NaN,bear,bear,NaN,bear6-bird2.png
deit_sinsup,1,135,NaN,airplane,bear,NaN,bear6-boat3.png
deit_sinsup,1,136,NaN,cat,bear,NaN,bear6-bottle3.png
deit_sinsup,1,137,NaN,airplane,bear,NaN,bear6-car2.png
deit_sinsup,1,138,NaN,bear,bear,NaN,bear6-cat3.png
deit_sinsup,1,139,NaN,elephant,bear,NaN,bear6-chair1.png
deit_sinsup,1,140,NaN,cat,bear,NaN,bear6-clock1.png
deit_sinsup,1,141,NaN,airplane,bear,NaN,bear7-bear2.png
deit_sinsup,1,142,NaN,dog,bear,NaN,bear7-bicycle2.png
deit_sinsup,1,143,NaN,bear,bear,NaN,bear7-clock1.png
deit_sinsup,1,144,NaN,bear,bear,NaN,bear7-dog3.png
deit_sinsup,1,145,NaN,bear,bear,NaN,bear7-oven3.png
deit_sinsup,1,146,NaN,bear,bear,NaN,bear7-truck1.png
deit_sinsup,1,147,NaN,bear,bear,NaN,bear8-airplane1.png
deit_sinsup,1,148,NaN,bear,bear,NaN,bear8-bear1.png
deit_sinsup,1,149,NaN,bear,bear,NaN,bear8-bicycle3.png
deit_sinsup,1,150,NaN,bear,bear,NaN,bear8-boat2.png
deit_sinsup,1,151,NaN,bear,bear,NaN,bear8-bottle1.png
deit_sinsup,1,152,NaN,bear,bear,NaN,bear8-dog1.png
deit_sinsup,1,153,NaN,bear,bear,NaN,bear8-elephant2.png
deit_sinsup,1,154,NaN,bear,bear,NaN,bear8-knife3.png
deit_sinsup,1,155,NaN,bottle,bear,NaN,bear8-truck3.png
deit_sinsup,1,156,NaN,bear,bear,NaN,bear9-boat2.png
deit_sinsup,1,157,NaN,bear,bear,NaN,bear9-bottle2.png
deit_sinsup,1,158,NaN,bear,bear,NaN,bear9-dog1.png
deit_sinsup,1,159,NaN,elephant,bear,NaN,bear9-keyboard3.png
deit_sinsup,1,160,NaN,bear,bear,NaN,bear9-knife2.png
deit_sinsup,1,161,NaN,bicycle,bicycle,NaN,bicycle1-airplane2.png
deit_sinsup,1,162,NaN,bicycle,bicycle,NaN,bicycle1-bear1.png
deit_sinsup,1,163,NaN,bicycle,bicycle,NaN,bicycle1-bicycle3.png
deit_sinsup,1,164,NaN,bicycle,bicycle,NaN,bicycle1-bird1.png
deit_sinsup,1,165,NaN,bicycle,bicycle,NaN,bicycle1-boat3.png
deit_sinsup,1,166,NaN,bicycle,bicycle,NaN,bicycle1-bottle3.png
deit_sinsup,1,167,NaN,bicycle,bicycle,NaN,bicycle1-chair1.png
deit_sinsup,1,168,NaN,bicycle,bicycle,NaN,bicycle1-clock3.png
deit_sinsup,1,169,NaN,bicycle,bicycle,NaN,bicycle1-dog3.png
deit_sinsup,1,170,NaN,bicycle,bicycle,NaN,bicycle1-elephant2.png
deit_sinsup,1,171,NaN,bicycle,bicycle,NaN,bicycle1-knife3.png
deit_sinsup,1,172,NaN,bicycle,bicycle,NaN,bicycle1-oven1.png
deit_sinsup,1,173,NaN,bicycle,bicycle,NaN,bicycle1-truck1.png
deit_sinsup,1,174,NaN,bicycle,bicycle,NaN,bicycle10-airplane2.png
deit_sinsup,1,175,NaN,bicycle,bicycle,NaN,bicycle10-boat3.png
deit_sinsup,1,176,NaN,bicycle,bicycle,NaN,bicycle10-clock2.png
deit_sinsup,1,177,NaN,bicycle,bicycle,NaN,bicycle10-dog3.png
deit_sinsup,1,178,NaN,bicycle,bicycle,NaN,bicycle10-elephant2.png
deit_sinsup,1,179,NaN,bicycle,bicycle,NaN,bicycle2-bicycle1.png
deit_sinsup,1,180,NaN,bicycle,bicycle,NaN,bicycle2-bird3.png
deit_sinsup,1,181,NaN,bicycle,bicycle,NaN,bicycle2-bottle1.png
deit_sinsup,1,182,NaN,bicycle,bicycle,NaN,bicycle2-car2.png
deit_sinsup,1,183,NaN,bicycle,bicycle,NaN,bicycle2-dog1.png
deit_sinsup,1,184,NaN,bottle,bicycle,NaN,bicycle2-keyboard2.png
deit_sinsup,1,185,NaN,bicycle,bicycle,NaN,bicycle2-knife2.png
deit_sinsup,1,186,NaN,bicycle,bicycle,NaN,bicycle3-bird1.png
deit_sinsup,1,187,NaN,bicycle,bicycle,NaN,bicycle3-elephant2.png
deit_sinsup,1,188,NaN,bicycle,bicycle,NaN,bicycle3-keyboard1.png
deit_sinsup,1,189,NaN,bicycle,bicycle,NaN,bicycle3-oven3.png
deit_sinsup,1,190,NaN,bicycle,bicycle,NaN,bicycle3-truck3.png
deit_sinsup,1,191,NaN,bicycle,bicycle,NaN,bicycle4-airplane1.png
deit_sinsup,1,192,NaN,bicycle,bicycle,NaN,bicycle4-bicycle3.png
deit_sinsup,1,193,NaN,bicycle,bicycle,NaN,bicycle4-boat1.png
deit_sinsup,1,194,NaN,bicycle,bicycle,NaN,bicycle4-bottle1.png
deit_sinsup,1,195,NaN,bicycle,bicycle,NaN,bicycle4-car2.png
deit_sinsup,1,196,NaN,bicycle,bicycle,NaN,bicycle4-cat1.png
deit_sinsup,1,197,NaN,bicycle,bicycle,NaN,bicycle4-chair2.png
deit_sinsup,1,198,NaN,bicycle,bicycle,NaN,bicycle4-clock3.png
deit_sinsup,1,199,NaN,bicycle,bicycle,NaN,bicycle4-keyboard3.png
deit_sinsup,1,200,NaN,bicycle,bicycle,NaN,bicycle4-knife3.png
deit_sinsup,1,201,NaN,bicycle,bicycle,NaN,bicycle4-oven3.png
deit_sinsup,1,202,NaN,bicycle,bicycle,NaN,bicycle4-truck3.png
deit_sinsup,1,203,NaN,knife,bicycle,NaN,bicycle5-bear1.png
deit_sinsup,1,204,NaN,bicycle,bicycle,NaN,bicycle5-bottle3.png
deit_sinsup,1,205,NaN,bicycle,bicycle,NaN,bicycle5-car3.png
deit_sinsup,1,206,NaN,truck,bicycle,NaN,bicycle5-cat1.png
deit_sinsup,1,207,NaN,bicycle,bicycle,NaN,bicycle5-chair2.png
deit_sinsup,1,208,NaN,bicycle,bicycle,NaN,bicycle5-dog2.png
deit_sinsup,1,209,NaN,bicycle,bicycle,NaN,bicycle5-elephant1.png
deit_sinsup,1,210,NaN,clock,bicycle,NaN,bicycle5-keyboard3.png
deit_sinsup,1,211,NaN,bicycle,bicycle,NaN,bicycle5-oven3.png
deit_sinsup,1,212,NaN,oven,bicycle,NaN,bicycle6-airplane2.png
deit_sinsup,1,213,NaN,bicycle,bicycle,NaN,bicycle6-bicycle3.png
deit_sinsup,1,214,NaN,bicycle,bicycle,NaN,bicycle6-boat2.png
deit_sinsup,1,215,NaN,clock,bicycle,NaN,bicycle6-car2.png
deit_sinsup,1,216,NaN,chair,bicycle,NaN,bicycle6-cat1.png
deit_sinsup,1,217,NaN,knife,bicycle,NaN,bicycle6-dog2.png
deit_sinsup,1,218,NaN,bicycle,bicycle,NaN,bicycle7-bear2.png
deit_sinsup,1,219,NaN,bicycle,bicycle,NaN,bicycle7-bicycle2.png
deit_sinsup,1,220,NaN,bicycle,bicycle,NaN,bicycle7-cat1.png
deit_sinsup,1,221,NaN,bicycle,bicycle,NaN,bicycle7-clock3.png
deit_sinsup,1,222,NaN,bicycle,bicycle,NaN,bicycle7-elephant2.png
deit_sinsup,1,223,NaN,bicycle,bicycle,NaN,bicycle7-knife2.png
deit_sinsup,1,224,NaN,bicycle,bicycle,NaN,bicycle7-oven1.png
deit_sinsup,1,225,NaN,bicycle,bicycle,NaN,bicycle7-truck3.png
deit_sinsup,1,226,NaN,bicycle,bicycle,NaN,bicycle8-bear2.png
deit_sinsup,1,227,NaN,bicycle,bicycle,NaN,bicycle8-bird2.png
deit_sinsup,1,228,NaN,bicycle,bicycle,NaN,bicycle8-boat1.png
deit_sinsup,1,229,NaN,bicycle,bicycle,NaN,bicycle8-chair2.png
deit_sinsup,1,230,NaN,bicycle,bicycle,NaN,bicycle8-clock3.png
deit_sinsup,1,231,NaN,bicycle,bicycle,NaN,bicycle8-truck1.png
deit_sinsup,1,232,NaN,bicycle,bicycle,NaN,bicycle9-airplane2.png
deit_sinsup,1,233,NaN,bicycle,bicycle,NaN,bicycle9-bear1.png
deit_sinsup,1,234,NaN,bicycle,bicycle,NaN,bicycle9-bird3.png
deit_sinsup,1,235,NaN,bicycle,bicycle,NaN,bicycle9-bottle1.png
deit_sinsup,1,236,NaN,bicycle,bicycle,NaN,bicycle9-car1.png
deit_sinsup,1,237,NaN,bicycle,bicycle,NaN,bicycle9-cat3.png
deit_sinsup,1,238,NaN,bicycle,bicycle,NaN,bicycle9-chair1.png
deit_sinsup,1,239,NaN,clock,bicycle,NaN,bicycle9-keyboard3.png
deit_sinsup,1,240,NaN,bicycle,bicycle,NaN,bicycle9-knife3.png
deit_sinsup,1,241,NaN,bird,bird,NaN,bird1-airplane2.png
deit_sinsup,1,242,NaN,bird,bird,NaN,bird1-bear1.png
deit_sinsup,1,243,NaN,bird,bird,NaN,bird1-bicycle2.png
deit_sinsup,1,244,NaN,bird,bird,NaN,bird1-boat1.png
deit_sinsup,1,245,NaN,chair,bird,NaN,bird1-chair2.png
deit_sinsup,1,246,NaN,bird,bird,NaN,bird1-clock3.png
deit_sinsup,1,247,NaN,bird,bird,NaN,bird1-elephant2.png
deit_sinsup,1,248,NaN,bird,bird,NaN,bird1-keyboard3.png
deit_sinsup,1,249,NaN,bird,bird,NaN,bird1-knife3.png
deit_sinsup,1,250,NaN,bird,bird,NaN,bird1-oven1.png
deit_sinsup,1,251,NaN,bird,bird,NaN,bird1-truck1.png
deit_sinsup,1,252,NaN,elephant,bird,NaN,bird10-bear2.png
deit_sinsup,1,253,NaN,chair,bird,NaN,bird10-bicycle1.png
deit_sinsup,1,254,NaN,knife,bird,NaN,bird10-bird2.png
deit_sinsup,1,255,NaN,bird,bird,NaN,bird10-cat1.png
deit_sinsup,1,256,NaN,dog,bird,NaN,bird10-chair1.png
deit_sinsup,1,257,NaN,elephant,bird,NaN,bird10-clock1.png
deit_sinsup,1,258,NaN,clock,bird,NaN,bird10-elephant2.png
deit_sinsup,1,259,NaN,bird,bird,NaN,bird2-airplane3.png
deit_sinsup,1,260,NaN,bird,bird,NaN,bird2-bird2.png
deit_sinsup,1,261,NaN,bicycle,bird,NaN,bird2-car3.png
deit_sinsup,1,262,NaN,elephant,bird,NaN,bird2-clock3.png
deit_sinsup,1,263,NaN,bird,bird,NaN,bird2-dog2.png
deit_sinsup,1,264,NaN,cat,bird,NaN,bird2-knife1.png
deit_sinsup,1,265,NaN,elephant,bird,NaN,bird3-bear3.png
deit_sinsup,1,266,NaN,bird,bird,NaN,bird3-bird2.png
deit_sinsup,1,267,NaN,elephant,bird,NaN,bird3-boat3.png
deit_sinsup,1,268,NaN,bird,bird,NaN,bird3-bottle2.png
deit_sinsup,1,269,NaN,chair,bird,NaN,bird3-cat1.png
deit_sinsup,1,270,NaN,elephant,bird,NaN,bird3-dog1.png
deit_sinsup,1,271,NaN,bird,bird,NaN,bird3-knife3.png
deit_sinsup,1,272,NaN,oven,bird,NaN,bird3-oven1.png
deit_sinsup,1,273,NaN,bird,bird,NaN,bird3-truck3.png
deit_sinsup,1,274,NaN,bird,bird,NaN,bird4-airplane1.png
deit_sinsup,1,275,NaN,cat,bird,NaN,bird4-bicycle2.png
deit_sinsup,1,276,NaN,knife,bird,NaN,bird4-cat3.png
deit_sinsup,1,277,NaN,oven,bird,NaN,bird4-clock1.png
deit_sinsup,1,278,NaN,dog,bird,NaN,bird4-dog3.png
deit_sinsup,1,279,NaN,bird,bird,NaN,bird5-airplane3.png
deit_sinsup,1,280,NaN,bird,bird,NaN,bird5-bear3.png
deit_sinsup,1,281,NaN,bird,bird,NaN,bird5-bicycle1.png
deit_sinsup,1,282,NaN,bird,bird,NaN,bird5-bird1.png
deit_sinsup,1,283,NaN,bird,bird,NaN,bird5-car2.png
deit_sinsup,1,284,NaN,bird,bird,NaN,bird5-cat2.png
deit_sinsup,1,285,NaN,bird,bird,NaN,bird5-chair1.png
deit_sinsup,1,286,NaN,knife,bird,NaN,bird5-dog2.png
deit_sinsup,1,287,NaN,bird,bird,NaN,bird5-keyboard2.png
deit_sinsup,1,288,NaN,bird,bird,NaN,bird5-oven3.png
deit_sinsup,1,289,NaN,bird,bird,NaN,bird5-truck2.png
deit_sinsup,1,290,NaN,knife,bird,NaN,bird6-airplane2.png
deit_sinsup,1,291,NaN,airplane,bird,NaN,bird6-boat2.png
deit_sinsup,1,292,NaN,clock,bird,NaN,bird6-bottle3.png
deit_sinsup,1,293,NaN,bird,bird,NaN,bird6-car3.png
deit_sinsup,1,294,NaN,elephant,bird,NaN,bird6-elephant2.png
deit_sinsup,1,295,NaN,airplane,bird,NaN,bird6-oven1.png
deit_sinsup,1,296,NaN,truck,bird,NaN,bird6-truck2.png
deit_sinsup,1,297,NaN,knife,bird,NaN,bird7-bird2.png
deit_sinsup,1,298,NaN,bird,bird,NaN,bird7-boat1.png
deit_sinsup,1,299,NaN,bird,bird,NaN,bird7-bottle1.png
deit_sinsup,1,300,NaN,chair,bird,NaN,bird7-car2.png
deit_sinsup,1,301,NaN,chair,bird,NaN,bird7-cat3.png
deit_sinsup,1,302,NaN,bird,bird,NaN,bird7-keyboard3.png
deit_sinsup,1,303,NaN,bird,bird,NaN,bird7-knife2.png
deit_sinsup,1,304,NaN,bird,bird,NaN,bird7-oven3.png
deit_sinsup,1,305,NaN,bird,bird,NaN,bird7-truck2.png
deit_sinsup,1,306,NaN,bird,bird,NaN,bird8-boat3.png
deit_sinsup,1,307,NaN,bird,bird,NaN,bird8-bottle1.png
deit_sinsup,1,308,NaN,bird,bird,NaN,bird8-car2.png
deit_sinsup,1,309,NaN,bird,bird,NaN,bird8-chair1.png
deit_sinsup,1,310,NaN,bird,bird,NaN,bird8-clock1.png
deit_sinsup,1,311,NaN,bird,bird,NaN,bird8-elephant1.png
deit_sinsup,1,312,NaN,airplane,bird,NaN,bird8-keyboard2.png
deit_sinsup,1,313,NaN,bird,bird,NaN,bird8-knife2.png
deit_sinsup,1,314,NaN,elephant,bird,NaN,bird9-bear3.png
deit_sinsup,1,315,NaN,bird,bird,NaN,bird9-bicycle3.png
deit_sinsup,1,316,NaN,bird,bird,NaN,bird9-bottle3.png
deit_sinsup,1,317,NaN,bird,bird,NaN,bird9-chair1.png
deit_sinsup,1,318,NaN,bird,bird,NaN,bird9-dog2.png
deit_sinsup,1,319,NaN,bird,bird,NaN,bird9-elephant2.png
deit_sinsup,1,320,NaN,bird,bird,NaN,bird9-keyboard1.png
deit_sinsup,1,321,NaN,elephant,boat,NaN,boat1-bear1.png
deit_sinsup,1,322,NaN,elephant,boat,NaN,boat1-bicycle2.png
deit_sinsup,1,323,NaN,knife,boat,NaN,boat1-bird3.png
deit_sinsup,1,324,NaN,clock,boat,NaN,boat1-car2.png
deit_sinsup,1,325,NaN,airplane,boat,NaN,boat1-chair3.png
deit_sinsup,1,326,NaN,airplane,boat,NaN,boat1-elephant3.png
deit_sinsup,1,327,NaN,knife,boat,NaN,boat1-keyboard3.png
deit_sinsup,1,328,NaN,boat,boat,NaN,boat1-oven1.png
deit_sinsup,1,329,NaN,chair,boat,NaN,boat1-truck3.png
deit_sinsup,1,330,NaN,bicycle,boat,NaN,boat10-bear3.png
deit_sinsup,1,331,NaN,boat,boat,NaN,boat10-boat3.png
deit_sinsup,1,332,NaN,clock,boat,NaN,boat10-cat1.png
deit_sinsup,1,333,NaN,car,boat,NaN,boat10-oven1.png
deit_sinsup,1,334,NaN,boat,boat,NaN,boat10-truck1.png
deit_sinsup,1,335,NaN,boat,boat,NaN,boat2-airplane1.png
deit_sinsup,1,336,NaN,elephant,boat,NaN,boat2-bear3.png
deit_sinsup,1,337,NaN,clock,boat,NaN,boat2-bird1.png
deit_sinsup,1,338,NaN,clock,boat,NaN,boat2-bottle2.png
deit_sinsup,1,339,NaN,knife,boat,NaN,boat2-keyboard1.png
deit_sinsup,1,340,NaN,clock,boat,NaN,boat2-oven3.png
deit_sinsup,1,341,NaN,keyboard,boat,NaN,boat3-airplane2.png
deit_sinsup,1,342,NaN,elephant,boat,NaN,boat3-bicycle2.png
deit_sinsup,1,343,NaN,chair,boat,NaN,boat3-car3.png
deit_sinsup,1,344,NaN,oven,boat,NaN,boat3-cat3.png
deit_sinsup,1,345,NaN,boat,boat,NaN,boat3-chair3.png
deit_sinsup,1,346,NaN,boat,boat,NaN,boat3-clock3.png
deit_sinsup,1,347,NaN,boat,boat,NaN,boat3-dog3.png
deit_sinsup,1,348,NaN,airplane,boat,NaN,boat3-keyboard2.png
deit_sinsup,1,349,NaN,oven,boat,NaN,boat4-bicycle3.png
deit_sinsup,1,350,NaN,elephant,boat,NaN,boat4-bird1.png
deit_sinsup,1,351,NaN,boat,boat,NaN,boat4-boat3.png
deit_sinsup,1,352,NaN,bear,boat,NaN,boat4-bottle2.png
deit_sinsup,1,353,NaN,oven,boat,NaN,boat4-car3.png
deit_sinsup,1,354,NaN,truck,boat,NaN,boat4-chair2.png
deit_sinsup,1,355,NaN,elephant,boat,NaN,boat4-dog2.png
deit_sinsup,1,356,NaN,oven,boat,NaN,boat4-elephant2.png
deit_sinsup,1,357,NaN,airplane,boat,NaN,boat4-knife2.png
deit_sinsup,1,358,NaN,chair,boat,NaN,boat5-airplane1.png
deit_sinsup,1,359,NaN,boat,boat,NaN,boat5-bicycle3.png
deit_sinsup,1,360,NaN,boat,boat,NaN,boat5-boat3.png
deit_sinsup,1,361,NaN,bicycle,boat,NaN,boat5-car3.png
deit_sinsup,1,362,NaN,boat,boat,NaN,boat5-clock3.png
deit_sinsup,1,363,NaN,truck,boat,NaN,boat5-knife2.png
deit_sinsup,1,364,NaN,boat,boat,NaN,boat6-airplane2.png
deit_sinsup,1,365,NaN,bear,boat,NaN,boat6-bear1.png
deit_sinsup,1,366,NaN,clock,boat,NaN,boat6-bicycle2.png
deit_sinsup,1,367,NaN,bird,boat,NaN,boat6-bottle2.png
deit_sinsup,1,368,NaN,clock,boat,NaN,boat6-car1.png
deit_sinsup,1,369,NaN,bear,boat,NaN,boat6-cat1.png
deit_sinsup,1,370,NaN,clock,boat,NaN,boat6-clock2.png
deit_sinsup,1,371,NaN,elephant,boat,NaN,boat6-dog1.png
deit_sinsup,1,372,NaN,clock,boat,NaN,boat6-elephant2.png
deit_sinsup,1,373,NaN,clock,boat,NaN,boat6-knife2.png
deit_sinsup,1,374,NaN,knife,boat,NaN,boat6-truck3.png
deit_sinsup,1,375,NaN,truck,boat,NaN,boat7-boat2.png
deit_sinsup,1,376,NaN,bottle,boat,NaN,boat7-bottle1.png
deit_sinsup,1,377,NaN,chair,boat,NaN,boat7-cat3.png
deit_sinsup,1,378,NaN,oven,boat,NaN,boat7-chair1.png
deit_sinsup,1,379,NaN,clock,boat,NaN,boat7-clock3.png
deit_sinsup,1,380,NaN,knife,boat,NaN,boat7-elephant3.png
deit_sinsup,1,381,NaN,knife,boat,NaN,boat7-keyboard3.png
deit_sinsup,1,382,NaN,clock,boat,NaN,boat7-oven3.png
deit_sinsup,1,383,NaN,chair,boat,NaN,boat7-truck2.png
deit_sinsup,1,384,NaN,boat,boat,NaN,boat8-bird2.png
deit_sinsup,1,385,NaN,boat,boat,NaN,boat8-bottle1.png
deit_sinsup,1,386,NaN,dog,boat,NaN,boat8-dog3.png
deit_sinsup,1,387,NaN,boat,boat,NaN,boat8-elephant1.png
deit_sinsup,1,388,NaN,boat,boat,NaN,boat8-knife1.png
deit_sinsup,1,389,NaN,boat,boat,NaN,boat8-oven1.png
deit_sinsup,1,390,NaN,boat,boat,NaN,boat8-truck2.png
deit_sinsup,1,391,NaN,boat,boat,NaN,boat9-airplane2.png
deit_sinsup,1,392,NaN,dog,boat,NaN,boat9-bear3.png
deit_sinsup,1,393,NaN,boat,boat,NaN,boat9-bird1.png
deit_sinsup,1,394,NaN,boat,boat,NaN,boat9-boat3.png
deit_sinsup,1,395,NaN,clock,boat,NaN,boat9-cat3.png
deit_sinsup,1,396,NaN,boat,boat,NaN,boat9-chair2.png
deit_sinsup,1,397,NaN,boat,boat,NaN,boat9-clock1.png
deit_sinsup,1,398,NaN,clock,boat,NaN,boat9-dog2.png
deit_sinsup,1,399,NaN,knife,boat,NaN,boat9-keyboard2.png
deit_sinsup,1,400,NaN,boat,boat,NaN,boat9-knife2.png
deit_sinsup,1,401,NaN,bottle,bottle,NaN,bottle1-bear1.png
deit_sinsup,1,402,NaN,bottle,bottle,NaN,bottle1-bird3.png
deit_sinsup,1,403,NaN,bottle,bottle,NaN,bottle1-car1.png
deit_sinsup,1,404,NaN,bottle,bottle,NaN,bottle1-cat3.png
deit_sinsup,1,405,NaN,bottle,bottle,NaN,bottle1-chair2.png
deit_sinsup,1,406,NaN,bottle,bottle,NaN,bottle1-clock1.png
deit_sinsup,1,407,NaN,bottle,bottle,NaN,bottle1-dog2.png
deit_sinsup,1,408,NaN,bottle,bottle,NaN,bottle1-keyboard3.png
deit_sinsup,1,409,NaN,bottle,bottle,NaN,bottle10-bear2.png
deit_sinsup,1,410,NaN,bottle,bottle,NaN,bottle10-boat3.png
deit_sinsup,1,411,NaN,bottle,bottle,NaN,bottle10-car1.png
deit_sinsup,1,412,NaN,bottle,bottle,NaN,bottle10-clock2.png
deit_sinsup,1,413,NaN,bottle,bottle,NaN,bottle10-dog1.png
deit_sinsup,1,414,NaN,bottle,bottle,NaN,bottle10-truck3.png
deit_sinsup,1,415,NaN,car,bottle,NaN,bottle2-bottle3.png
deit_sinsup,1,416,NaN,clock,bottle,NaN,bottle2-car2.png
deit_sinsup,1,417,NaN,bottle,bottle,NaN,bottle2-chair3.png
deit_sinsup,1,418,NaN,bottle,bottle,NaN,bottle2-clock1.png
deit_sinsup,1,419,NaN,chair,bottle,NaN,bottle2-elephant1.png
deit_sinsup,1,420,NaN,bottle,bottle,NaN,bottle2-knife3.png
deit_sinsup,1,421,NaN,bottle,bottle,NaN,bottle3-airplane2.png
deit_sinsup,1,422,NaN,bottle,bottle,NaN,bottle3-bear2.png
deit_sinsup,1,423,NaN,chair,bottle,NaN,bottle3-bicycle3.png
deit_sinsup,1,424,NaN,bottle,bottle,NaN,bottle3-bird1.png
deit_sinsup,1,425,NaN,bottle,bottle,NaN,bottle3-boat3.png
deit_sinsup,1,426,NaN,bottle,bottle,NaN,bottle3-bottle3.png
deit_sinsup,1,427,NaN,bottle,bottle,NaN,bottle3-cat3.png
deit_sinsup,1,428,NaN,airplane,bottle,NaN,bottle3-chair3.png
deit_sinsup,1,429,NaN,bottle,bottle,NaN,bottle3-knife3.png
deit_sinsup,1,430,NaN,bottle,bottle,NaN,bottle4-airplane1.png
deit_sinsup,1,431,NaN,airplane,bottle,NaN,bottle4-bicycle1.png
deit_sinsup,1,432,NaN,chair,bottle,NaN,bottle4-car3.png
deit_sinsup,1,433,NaN,bottle,bottle,NaN,bottle4-dog2.png
deit_sinsup,1,434,NaN,bottle,bottle,NaN,bottle4-oven2.png
deit_sinsup,1,435,NaN,bottle,bottle,NaN,bottle4-truck1.png
deit_sinsup,1,436,NaN,bottle,bottle,NaN,bottle5-airplane1.png
deit_sinsup,1,437,NaN,bottle,bottle,NaN,bottle5-bird3.png
deit_sinsup,1,438,NaN,bottle,bottle,NaN,bottle5-boat1.png
deit_sinsup,1,439,NaN,bottle,bottle,NaN,bottle5-cat1.png
deit_sinsup,1,440,NaN,bottle,bottle,NaN,bottle5-chair1.png
deit_sinsup,1,441,NaN,clock,bottle,NaN,bottle5-clock3.png
deit_sinsup,1,442,NaN,car,bottle,NaN,bottle5-elephant1.png
deit_sinsup,1,443,NaN,clock,bottle,NaN,bottle5-keyboard2.png
deit_sinsup,1,444,NaN,elephant,bottle,NaN,bottle5-knife1.png
deit_sinsup,1,445,NaN,bottle,bottle,NaN,bottle5-oven2.png
deit_sinsup,1,446,NaN,bottle,bottle,NaN,bottle5-truck1.png
deit_sinsup,1,447,NaN,bottle,bottle,NaN,bottle6-airplane1.png
deit_sinsup,1,448,NaN,bear,bottle,NaN,bottle6-bear2.png
deit_sinsup,1,449,NaN,bottle,bottle,NaN,bottle6-bicycle3.png
deit_sinsup,1,450,NaN,bottle,bottle,NaN,bottle6-bird1.png
deit_sinsup,1,451,NaN,bottle,bottle,NaN,bottle6-boat3.png
deit_sinsup,1,452,NaN,bottle,bottle,NaN,bottle6-bottle3.png
deit_sinsup,1,453,NaN,bottle,bottle,NaN,bottle6-chair2.png
deit_sinsup,1,454,NaN,bear,bottle,NaN,bottle6-dog3.png
deit_sinsup,1,455,NaN,chair,bottle,NaN,bottle6-knife3.png
deit_sinsup,1,456,NaN,bottle,bottle,NaN,bottle6-oven3.png
deit_sinsup,1,457,NaN,bottle,bottle,NaN,bottle7-airplane3.png
deit_sinsup,1,458,NaN,bottle,bottle,NaN,bottle7-bear1.png
deit_sinsup,1,459,NaN,oven,bottle,NaN,bottle7-boat3.png
deit_sinsup,1,460,NaN,bottle,bottle,NaN,bottle7-cat2.png
deit_sinsup,1,461,NaN,bottle,bottle,NaN,bottle7-clock1.png
deit_sinsup,1,462,NaN,chair,bottle,NaN,bottle7-elephant2.png
deit_sinsup,1,463,NaN,knife,bottle,NaN,bottle7-keyboard2.png
deit_sinsup,1,464,NaN,bottle,bottle,NaN,bottle7-oven2.png
deit_sinsup,1,465,NaN,bottle,bottle,NaN,bottle7-truck2.png
deit_sinsup,1,466,NaN,bottle,bottle,NaN,bottle8-bicycle1.png
deit_sinsup,1,467,NaN,bottle,bottle,NaN,bottle8-bird1.png
deit_sinsup,1,468,NaN,bottle,bottle,NaN,bottle8-bottle3.png
deit_sinsup,1,469,NaN,bottle,bottle,NaN,bottle8-dog2.png
deit_sinsup,1,470,NaN,bottle,bottle,NaN,bottle8-elephant3.png
deit_sinsup,1,471,NaN,bottle,bottle,NaN,bottle8-keyboard3.png
deit_sinsup,1,472,NaN,bottle,bottle,NaN,bottle8-knife1.png
deit_sinsup,1,473,NaN,chair,bottle,NaN,bottle9-bicycle1.png
deit_sinsup,1,474,NaN,clock,bottle,NaN,bottle9-bottle1.png
deit_sinsup,1,475,NaN,chair,bottle,NaN,bottle9-car3.png
deit_sinsup,1,476,NaN,chair,bottle,NaN,bottle9-cat2.png
deit_sinsup,1,477,NaN,chair,bottle,NaN,bottle9-elephant2.png
deit_sinsup,1,478,NaN,truck,bottle,NaN,bottle9-keyboard1.png
deit_sinsup,1,479,NaN,bottle,bottle,NaN,bottle9-oven2.png
deit_sinsup,1,480,NaN,bottle,bottle,NaN,bottle9-truck1.png
deit_sinsup,1,481,NaN,car,car,NaN,car1-airplane1.png
deit_sinsup,1,482,NaN,car,car,NaN,car1-car2.png
deit_sinsup,1,483,NaN,truck,car,NaN,car1-chair3.png
deit_sinsup,1,484,NaN,truck,car,NaN,car1-clock2.png
deit_sinsup,1,485,NaN,bottle,car,NaN,car1-dog2.png
deit_sinsup,1,486,NaN,keyboard,car,NaN,car1-keyboard2.png
deit_sinsup,1,487,NaN,car,car,NaN,car1-oven3.png
deit_sinsup,1,488,NaN,car,car,NaN,car10-bicycle2.png
deit_sinsup,1,489,NaN,truck,car,NaN,car10-bottle3.png
deit_sinsup,1,490,NaN,car,car,NaN,car10-car1.png
deit_sinsup,1,491,NaN,car,car,NaN,car10-chair1.png
deit_sinsup,1,492,NaN,car,car,NaN,car10-dog1.png
deit_sinsup,1,493,NaN,car,car,NaN,car10-elephant2.png
deit_sinsup,1,494,NaN,airplane,car,NaN,car10-keyboard2.png
deit_sinsup,1,495,NaN,car,car,NaN,car2-bird3.png
deit_sinsup,1,496,NaN,car,car,NaN,car2-car3.png
deit_sinsup,1,497,NaN,clock,car,NaN,car2-cat3.png
deit_sinsup,1,498,NaN,car,car,NaN,car2-chair1.png
deit_sinsup,1,499,NaN,car,car,NaN,car2-knife3.png
deit_sinsup,1,500,NaN,car,car,NaN,car3-airplane3.png
deit_sinsup,1,501,NaN,car,car,NaN,car3-bird2.png
deit_sinsup,1,502,NaN,car,car,NaN,car3-boat1.png
deit_sinsup,1,503,NaN,car,car,NaN,car3-bottle3.png
deit_sinsup,1,504,NaN,dog,car,NaN,car3-dog2.png
deit_sinsup,1,505,NaN,car,car,NaN,car3-elephant3.png
deit_sinsup,1,506,NaN,car,car,NaN,car3-oven3.png
deit_sinsup,1,507,NaN,car,car,NaN,car3-truck1.png
deit_sinsup,1,508,NaN,elephant,car,NaN,car4-bear3.png
deit_sinsup,1,509,NaN,keyboard,car,NaN,car4-bicycle3.png
deit_sinsup,1,510,NaN,oven,car,NaN,car4-bird1.png
deit_sinsup,1,511,NaN,car,car,NaN,car4-boat1.png
deit_sinsup,1,512,NaN,chair,car,NaN,car4-bottle1.png
deit_sinsup,1,513,NaN,car,car,NaN,car4-car2.png
deit_sinsup,1,514,NaN,elephant,car,NaN,car4-cat3.png
deit_sinsup,1,515,NaN,car,car,NaN,car4-clock1.png
deit_sinsup,1,516,NaN,keyboard,car,NaN,car4-elephant3.png
deit_sinsup,1,517,NaN,oven,car,NaN,car4-oven2.png
deit_sinsup,1,518,NaN,truck,car,NaN,car5-airplane3.png
deit_sinsup,1,519,NaN,clock,car,NaN,car5-bear3.png
deit_sinsup,1,520,NaN,car,car,NaN,car5-bottle1.png
deit_sinsup,1,521,NaN,boat,car,NaN,car5-cat1.png
deit_sinsup,1,522,NaN,clock,car,NaN,car5-keyboard3.png
deit_sinsup,1,523,NaN,truck,car,NaN,car5-knife2.png
deit_sinsup,1,524,NaN,car,car,NaN,car5-oven2.png
deit_sinsup,1,525,NaN,car,car,NaN,car5-truck3.png
deit_sinsup,1,526,NaN,clock,car,NaN,car6-bear1.png
deit_sinsup,1,527,NaN,car,car,NaN,car6-bicycle3.png
deit_sinsup,1,528,NaN,car,car,NaN,car6-boat1.png
deit_sinsup,1,529,NaN,car,car,NaN,car6-bottle1.png
deit_sinsup,1,530,NaN,car,car,NaN,car6-chair3.png
deit_sinsup,1,531,NaN,car,car,NaN,car6-elephant3.png
deit_sinsup,1,532,NaN,car,car,NaN,car6-knife1.png
deit_sinsup,1,533,NaN,airplane,car,NaN,car6-truck3.png
deit_sinsup,1,534,NaN,car,car,NaN,car7-airplane2.png
deit_sinsup,1,535,NaN,elephant,car,NaN,car7-bear1.png
deit_sinsup,1,536,NaN,dog,car,NaN,car7-bird3.png
deit_sinsup,1,537,NaN,car,car,NaN,car7-boat3.png
deit_sinsup,1,538,NaN,car,car,NaN,car7-car1.png
deit_sinsup,1,539,NaN,car,car,NaN,car7-clock1.png
deit_sinsup,1,540,NaN,dog,car,NaN,car7-dog3.png
deit_sinsup,1,541,NaN,car,car,NaN,car7-elephant3.png
deit_sinsup,1,542,NaN,truck,car,NaN,car7-keyboard3.png
deit_sinsup,1,543,NaN,car,car,NaN,car7-oven2.png
deit_sinsup,1,544,NaN,car,car,NaN,car8-airplane3.png
deit_sinsup,1,545,NaN,clock,car,NaN,car8-bear1.png
deit_sinsup,1,546,NaN,car,car,NaN,car8-bicycle2.png
deit_sinsup,1,547,NaN,elephant,car,NaN,car8-boat3.png
deit_sinsup,1,548,NaN,chair,car,NaN,car8-cat1.png
deit_sinsup,1,549,NaN,car,car,NaN,car8-chair1.png
deit_sinsup,1,550,NaN,car,car,NaN,car8-clock2.png
deit_sinsup,1,551,NaN,clock,car,NaN,car8-dog1.png
deit_sinsup,1,552,NaN,car,car,NaN,car8-knife2.png
deit_sinsup,1,553,NaN,car,car,NaN,car8-truck3.png
deit_sinsup,1,554,NaN,car,car,NaN,car9-bicycle2.png
deit_sinsup,1,555,NaN,truck,car,NaN,car9-bird1.png
deit_sinsup,1,556,NaN,car,car,NaN,car9-cat1.png
deit_sinsup,1,557,NaN,car,car,NaN,car9-clock2.png
deit_sinsup,1,558,NaN,car,car,NaN,car9-keyboard2.png
deit_sinsup,1,559,NaN,car,car,NaN,car9-knife1.png
deit_sinsup,1,560,NaN,car,car,NaN,car9-truck3.png
deit_sinsup,1,561,NaN,cat,cat,NaN,cat1-airplane1.png
deit_sinsup,1,562,NaN,cat,cat,NaN,cat1-bird1.png
deit_sinsup,1,563,NaN,cat,cat,NaN,cat1-boat1.png
deit_sinsup,1,564,NaN,cat,cat,NaN,cat1-car2.png
deit_sinsup,1,565,NaN,cat,cat,NaN,cat1-cat3.png
deit_sinsup,1,566,NaN,cat,cat,NaN,cat1-chair2.png
deit_sinsup,1,567,NaN,cat,cat,NaN,cat1-dog1.png
deit_sinsup,1,568,NaN,cat,cat,NaN,cat1-keyboard3.png
deit_sinsup,1,569,NaN,cat,cat,NaN,cat1-oven1.png
deit_sinsup,1,570,NaN,cat,cat,NaN,cat10-airplane3.png
deit_sinsup,1,571,NaN,cat,cat,NaN,cat10-bear1.png
deit_sinsup,1,572,NaN,cat,cat,NaN,cat10-bicycle1.png
deit_sinsup,1,573,NaN,cat,cat,NaN,cat10-bird2.png
deit_sinsup,1,574,NaN,cat,cat,NaN,cat10-bottle1.png
deit_sinsup,1,575,NaN,cat,cat,NaN,cat10-clock1.png
deit_sinsup,1,576,NaN,cat,cat,NaN,cat10-elephant3.png
deit_sinsup,1,577,NaN,cat,cat,NaN,cat10-keyboard1.png
deit_sinsup,1,578,NaN,cat,cat,NaN,cat10-oven2.png
deit_sinsup,1,579,NaN,clock,cat,NaN,cat2-boat2.png
deit_sinsup,1,580,NaN,cat,cat,NaN,cat2-bottle3.png
deit_sinsup,1,581,NaN,clock,cat,NaN,cat2-car3.png
deit_sinsup,1,582,NaN,cat,cat,NaN,cat2-cat1.png
deit_sinsup,1,583,NaN,clock,cat,NaN,cat2-elephant1.png
deit_sinsup,1,584,NaN,cat,cat,NaN,cat2-knife3.png
deit_sinsup,1,585,NaN,cat,cat,NaN,cat2-truck3.png
deit_sinsup,1,586,NaN,cat,cat,NaN,cat3-bear2.png
deit_sinsup,1,587,NaN,cat,cat,NaN,cat3-bicycle1.png
deit_sinsup,1,588,NaN,cat,cat,NaN,cat3-cat1.png
deit_sinsup,1,589,NaN,cat,cat,NaN,cat3-elephant2.png
deit_sinsup,1,590,NaN,cat,cat,NaN,cat3-oven2.png
deit_sinsup,1,591,NaN,cat,cat,NaN,cat3-truck3.png
deit_sinsup,1,592,NaN,cat,cat,NaN,cat4-airplane1.png
deit_sinsup,1,593,NaN,cat,cat,NaN,cat4-bird2.png
deit_sinsup,1,594,NaN,clock,cat,NaN,cat4-car2.png
deit_sinsup,1,595,NaN,cat,cat,NaN,cat4-cat3.png
deit_sinsup,1,596,NaN,clock,cat,NaN,cat4-chair2.png
deit_sinsup,1,597,NaN,cat,cat,NaN,cat4-clock2.png
deit_sinsup,1,598,NaN,knife,cat,NaN,cat4-dog3.png
deit_sinsup,1,599,NaN,dog,cat,NaN,cat4-keyboard2.png
deit_sinsup,1,600,NaN,cat,cat,NaN,cat4-knife1.png
deit_sinsup,1,601,NaN,cat,cat,NaN,cat4-oven1.png
deit_sinsup,1,602,NaN,oven,cat,NaN,cat4-truck3.png
deit_sinsup,1,603,NaN,cat,cat,NaN,cat5-airplane2.png
deit_sinsup,1,604,NaN,cat,cat,NaN,cat5-bear2.png
deit_sinsup,1,605,NaN,cat,cat,NaN,cat5-bicycle3.png
deit_sinsup,1,606,NaN,cat,cat,NaN,cat5-boat1.png
deit_sinsup,1,607,NaN,cat,cat,NaN,cat5-bottle1.png
deit_sinsup,1,608,NaN,cat,cat,NaN,cat5-car2.png
deit_sinsup,1,609,NaN,cat,cat,NaN,cat5-chair3.png
deit_sinsup,1,610,NaN,cat,cat,NaN,cat5-dog3.png
deit_sinsup,1,611,NaN,cat,cat,NaN,cat5-elephant2.png
deit_sinsup,1,612,NaN,dog,cat,NaN,cat5-keyboard3.png
deit_sinsup,1,613,NaN,cat,cat,NaN,cat5-knife2.png
deit_sinsup,1,614,NaN,cat,cat,NaN,cat6-bear1.png
deit_sinsup,1,615,NaN,cat,cat,NaN,cat6-chair3.png
deit_sinsup,1,616,NaN,cat,cat,NaN,cat6-clock3.png
deit_sinsup,1,617,NaN,cat,cat,NaN,cat6-keyboard3.png
deit_sinsup,1,618,NaN,cat,cat,NaN,cat6-oven1.png
deit_sinsup,1,619,NaN,bird,cat,NaN,cat7-airplane2.png
deit_sinsup,1,620,NaN,cat,cat,NaN,cat7-boat3.png
deit_sinsup,1,621,NaN,cat,cat,NaN,cat7-bottle1.png
deit_sinsup,1,622,NaN,cat,cat,NaN,cat7-clock3.png
deit_sinsup,1,623,NaN,cat,cat,NaN,cat7-dog3.png
deit_sinsup,1,624,NaN,cat,cat,NaN,cat7-elephant1.png
deit_sinsup,1,625,NaN,knife,cat,NaN,cat7-knife2.png
deit_sinsup,1,626,NaN,chair,cat,NaN,cat7-truck2.png
deit_sinsup,1,627,NaN,bear,cat,NaN,cat8-bear1.png
deit_sinsup,1,628,NaN,cat,cat,NaN,cat8-bicycle3.png
deit_sinsup,1,629,NaN,cat,cat,NaN,cat8-bird2.png
deit_sinsup,1,630,NaN,clock,cat,NaN,cat8-car2.png
deit_sinsup,1,631,NaN,oven,cat,NaN,cat9-bicycle1.png
deit_sinsup,1,632,NaN,cat,cat,NaN,cat9-bird3.png
deit_sinsup,1,633,NaN,bicycle,cat,NaN,cat9-boat2.png
deit_sinsup,1,634,NaN,cat,cat,NaN,cat9-bottle2.png
deit_sinsup,1,635,NaN,cat,cat,NaN,cat9-cat3.png
deit_sinsup,1,636,NaN,truck,cat,NaN,cat9-chair2.png
deit_sinsup,1,637,NaN,cat,cat,NaN,cat9-clock2.png
deit_sinsup,1,638,NaN,dog,cat,NaN,cat9-dog2.png
deit_sinsup,1,639,NaN,airplane,cat,NaN,cat9-knife2.png
deit_sinsup,1,640,NaN,truck,cat,NaN,cat9-truck1.png
deit_sinsup,1,641,NaN,chair,chair,NaN,chair1-airplane2.png
deit_sinsup,1,642,NaN,bear,chair,NaN,chair1-bear1.png
deit_sinsup,1,643,NaN,knife,chair,NaN,chair1-cat3.png
deit_sinsup,1,644,NaN,chair,chair,NaN,chair1-chair1.png
deit_sinsup,1,645,NaN,chair,chair,NaN,chair1-clock2.png
deit_sinsup,1,646,NaN,chair,chair,NaN,chair1-dog1.png
deit_sinsup,1,647,NaN,chair,chair,NaN,chair1-elephant1.png
deit_sinsup,1,648,NaN,chair,chair,NaN,chair1-oven3.png
deit_sinsup,1,649,NaN,chair,chair,NaN,chair1-truck3.png
deit_sinsup,1,650,NaN,chair,chair,NaN,chair10-airplane2.png
deit_sinsup,1,651,NaN,chair,chair,NaN,chair10-bicycle1.png
deit_sinsup,1,652,NaN,chair,chair,NaN,chair10-bird3.png
deit_sinsup,1,653,NaN,chair,chair,NaN,chair10-bottle3.png
deit_sinsup,1,654,NaN,chair,chair,NaN,chair10-car2.png
deit_sinsup,1,655,NaN,chair,chair,NaN,chair10-cat1.png
deit_sinsup,1,656,NaN,chair,chair,NaN,chair10-clock1.png
deit_sinsup,1,657,NaN,clock,chair,NaN,chair10-dog1.png
deit_sinsup,1,658,NaN,chair,chair,NaN,chair10-oven1.png
deit_sinsup,1,659,NaN,chair,chair,NaN,chair2-bear2.png
deit_sinsup,1,660,NaN,chair,chair,NaN,chair2-boat1.png
deit_sinsup,1,661,NaN,chair,chair,NaN,chair2-keyboard2.png
deit_sinsup,1,662,NaN,chair,chair,NaN,chair2-knife1.png
deit_sinsup,1,663,NaN,chair,chair,NaN,chair3-airplane2.png
deit_sinsup,1,664,NaN,chair,chair,NaN,chair3-bicycle3.png
deit_sinsup,1,665,NaN,chair,chair,NaN,chair3-bottle3.png
deit_sinsup,1,666,NaN,chair,chair,NaN,chair3-car3.png
deit_sinsup,1,667,NaN,chair,chair,NaN,chair3-dog2.png
deit_sinsup,1,668,NaN,chair,chair,NaN,chair3-knife1.png
deit_sinsup,1,669,NaN,cat,chair,NaN,chair4-bear2.png
deit_sinsup,1,670,NaN,chair,chair,NaN,chair4-cat2.png
deit_sinsup,1,671,NaN,chair,chair,NaN,chair4-chair3.png
deit_sinsup,1,672,NaN,chair,chair,NaN,chair4-keyboard2.png
deit_sinsup,1,673,NaN,chair,chair,NaN,chair4-oven2.png
deit_sinsup,1,674,NaN,chair,chair,NaN,chair4-truck2.png
deit_sinsup,1,675,NaN,chair,chair,NaN,chair5-bicycle1.png
deit_sinsup,1,676,NaN,bird,chair,NaN,chair5-bird1.png
deit_sinsup,1,677,NaN,chair,chair,NaN,chair5-boat3.png
deit_sinsup,1,678,NaN,chair,chair,NaN,chair5-bottle3.png
deit_sinsup,1,679,NaN,chair,chair,NaN,chair5-car1.png
deit_sinsup,1,680,NaN,chair,chair,NaN,chair5-cat3.png
deit_sinsup,1,681,NaN,chair,chair,NaN,chair5-clock2.png
deit_sinsup,1,682,NaN,keyboard,chair,NaN,chair5-keyboard2.png
deit_sinsup,1,683,NaN,chair,chair,NaN,chair5-knife3.png
deit_sinsup,1,684,NaN,chair,chair,NaN,chair5-oven2.png
deit_sinsup,1,685,NaN,chair,chair,NaN,chair5-truck3.png
deit_sinsup,1,686,NaN,chair,chair,NaN,chair6-bird2.png
deit_sinsup,1,687,NaN,knife,chair,NaN,chair6-dog1.png
deit_sinsup,1,688,NaN,chair,chair,NaN,chair6-elephant2.png
deit_sinsup,1,689,NaN,bottle,chair,NaN,chair6-truck2.png
deit_sinsup,1,690,NaN,chair,chair,NaN,chair7-airplane1.png
deit_sinsup,1,691,NaN,chair,chair,NaN,chair7-bird1.png
deit_sinsup,1,692,NaN,chair,chair,NaN,chair7-boat3.png
deit_sinsup,1,693,NaN,chair,chair,NaN,chair7-bottle1.png
deit_sinsup,1,694,NaN,clock,chair,NaN,chair7-car2.png
deit_sinsup,1,695,NaN,chair,chair,NaN,chair7-cat1.png
deit_sinsup,1,696,NaN,chair,chair,NaN,chair7-chair1.png
deit_sinsup,1,697,NaN,chair,chair,NaN,chair7-clock3.png
deit_sinsup,1,698,NaN,chair,chair,NaN,chair7-elephant1.png
deit_sinsup,1,699,NaN,cat,chair,NaN,chair7-knife2.png
deit_sinsup,1,700,NaN,chair,chair,NaN,chair7-truck3.png
deit_sinsup,1,701,NaN,chair,chair,NaN,chair8-airplane1.png
deit_sinsup,1,702,NaN,chair,chair,NaN,chair8-bear1.png
deit_sinsup,1,703,NaN,chair,chair,NaN,chair8-bicycle3.png
deit_sinsup,1,704,NaN,chair,chair,NaN,chair8-boat1.png
deit_sinsup,1,705,NaN,chair,chair,NaN,chair8-car1.png
deit_sinsup,1,706,NaN,chair,chair,NaN,chair8-chair3.png
deit_sinsup,1,707,NaN,clock,chair,NaN,chair8-clock3.png
deit_sinsup,1,708,NaN,chair,chair,NaN,chair8-elephant1.png
deit_sinsup,1,709,NaN,chair,chair,NaN,chair8-keyboard3.png
deit_sinsup,1,710,NaN,chair,chair,NaN,chair8-knife2.png
deit_sinsup,1,711,NaN,chair,chair,NaN,chair8-oven1.png
deit_sinsup,1,712,NaN,chair,chair,NaN,chair9-bear1.png
deit_sinsup,1,713,NaN,chair,chair,NaN,chair9-bicycle3.png
deit_sinsup,1,714,NaN,chair,chair,NaN,chair9-bird3.png
deit_sinsup,1,715,NaN,chair,chair,NaN,chair9-boat2.png
deit_sinsup,1,716,NaN,chair,chair,NaN,chair9-bottle3.png
deit_sinsup,1,717,NaN,chair,chair,NaN,chair9-chair3.png
deit_sinsup,1,718,NaN,chair,chair,NaN,chair9-dog2.png
deit_sinsup,1,719,NaN,oven,chair,NaN,chair9-elephant1.png
deit_sinsup,1,720,NaN,clock,chair,NaN,chair9-keyboard2.png
deit_sinsup,1,721,NaN,truck,clock,NaN,clock1-bear1.png
deit_sinsup,1,722,NaN,clock,clock,NaN,clock1-boat3.png
deit_sinsup,1,723,NaN,clock,clock,NaN,clock1-car1.png
deit_sinsup,1,724,NaN,clock,clock,NaN,clock1-clock2.png
deit_sinsup,1,725,NaN,clock,clock,NaN,clock1-dog2.png
deit_sinsup,1,726,NaN,clock,clock,NaN,clock1-elephant2.png
deit_sinsup,1,727,NaN,clock,clock,NaN,clock1-truck3.png
deit_sinsup,1,728,NaN,clock,clock,NaN,clock10-airplane1.png
deit_sinsup,1,729,NaN,clock,clock,NaN,clock10-bird3.png
deit_sinsup,1,730,NaN,clock,clock,NaN,clock10-boat2.png
deit_sinsup,1,731,NaN,clock,clock,NaN,clock10-bottle1.png
deit_sinsup,1,732,NaN,clock,clock,NaN,clock10-cat1.png
deit_sinsup,1,733,NaN,clock,clock,NaN,clock10-clock3.png
deit_sinsup,1,734,NaN,clock,clock,NaN,clock10-dog3.png
deit_sinsup,1,735,NaN,clock,clock,NaN,clock10-knife3.png
deit_sinsup,1,736,NaN,clock,clock,NaN,clock10-oven2.png
deit_sinsup,1,737,NaN,bottle,clock,NaN,clock10-truck2.png
deit_sinsup,1,738,NaN,clock,clock,NaN,clock2-bear2.png
deit_sinsup,1,739,NaN,clock,clock,NaN,clock2-bicycle1.png
deit_sinsup,1,740,NaN,clock,clock,NaN,clock2-bottle3.png
deit_sinsup,1,741,NaN,clock,clock,NaN,clock2-clock3.png
deit_sinsup,1,742,NaN,clock,clock,NaN,clock2-dog1.png
deit_sinsup,1,743,NaN,clock,clock,NaN,clock2-elephant2.png
deit_sinsup,1,744,NaN,clock,clock,NaN,clock2-knife1.png
deit_sinsup,1,745,NaN,clock,clock,NaN,clock3-bear3.png
deit_sinsup,1,746,NaN,clock,clock,NaN,clock3-bicycle2.png
deit_sinsup,1,747,NaN,clock,clock,NaN,clock3-bird1.png
deit_sinsup,1,748,NaN,clock,clock,NaN,clock3-car2.png
deit_sinsup,1,749,NaN,clock,clock,NaN,clock3-cat1.png
deit_sinsup,1,750,NaN,clock,clock,NaN,clock3-dog2.png
deit_sinsup,1,751,NaN,clock,clock,NaN,clock3-elephant3.png
deit_sinsup,1,752,NaN,clock,clock,NaN,clock3-keyboard3.png
deit_sinsup,1,753,NaN,clock,clock,NaN,clock4-airplane1.png
deit_sinsup,1,754,NaN,clock,clock,NaN,clock4-bird3.png
deit_sinsup,1,755,NaN,clock,clock,NaN,clock4-boat3.png
deit_sinsup,1,756,NaN,clock,clock,NaN,clock4-bottle3.png
deit_sinsup,1,757,NaN,clock,clock,NaN,clock4-car2.png
deit_sinsup,1,758,NaN,clock,clock,NaN,clock4-chair1.png
deit_sinsup,1,759,NaN,clock,clock,NaN,clock4-elephant2.png
deit_sinsup,1,760,NaN,clock,clock,NaN,clock4-knife1.png
deit_sinsup,1,761,NaN,clock,clock,NaN,clock4-oven1.png
deit_sinsup,1,762,NaN,clock,clock,NaN,clock5-airplane1.png
deit_sinsup,1,763,NaN,clock,clock,NaN,clock5-bicycle1.png
deit_sinsup,1,764,NaN,clock,clock,NaN,clock5-chair3.png
deit_sinsup,1,765,NaN,clock,clock,NaN,clock5-clock2.png
deit_sinsup,1,766,NaN,clock,clock,NaN,clock5-elephant2.png
deit_sinsup,1,767,NaN,clock,clock,NaN,clock5-keyboard1.png
deit_sinsup,1,768,NaN,clock,clock,NaN,clock5-oven1.png
deit_sinsup,1,769,NaN,clock,clock,NaN,clock6-bicycle1.png
deit_sinsup,1,770,NaN,clock,clock,NaN,clock6-bird3.png
deit_sinsup,1,771,NaN,clock,clock,NaN,clock6-bottle1.png
deit_sinsup,1,772,NaN,clock,clock,NaN,clock6-car2.png
deit_sinsup,1,773,NaN,clock,clock,NaN,clock6-chair3.png
deit_sinsup,1,774,NaN,clock,clock,NaN,clock6-clock2.png
deit_sinsup,1,775,NaN,clock,clock,NaN,clock6-knife2.png
deit_sinsup,1,776,NaN,clock,clock,NaN,clock6-oven1.png
deit_sinsup,1,777,NaN,clock,clock,NaN,clock6-truck3.png
deit_sinsup,1,778,NaN,clock,clock,NaN,clock7-bear2.png
deit_sinsup,1,779,NaN,clock,clock,NaN,clock7-bicycle1.png
deit_sinsup,1,780,NaN,clock,clock,NaN,clock7-boat3.png
deit_sinsup,1,781,NaN,clock,clock,NaN,clock7-bottle2.png
deit_sinsup,1,782,NaN,clock,clock,NaN,clock7-car1.png
deit_sinsup,1,783,NaN,clock,clock,NaN,clock7-cat2.png
deit_sinsup,1,784,NaN,clock,clock,NaN,clock7-dog2.png
deit_sinsup,1,785,NaN,clock,clock,NaN,clock7-keyboard2.png
deit_sinsup,1,786,NaN,clock,clock,NaN,clock7-truck3.png
deit_sinsup,1,787,NaN,clock,clock,NaN,clock8-airplane2.png
deit_sinsup,1,788,NaN,clock,clock,NaN,clock8-bear2.png
deit_sinsup,1,789,NaN,clock,clock,NaN,clock8-boat1.png
deit_sinsup,1,790,NaN,clock,clock,NaN,clock8-cat1.png
deit_sinsup,1,791,NaN,clock,clock,NaN,clock8-chair2.png
deit_sinsup,1,792,NaN,clock,clock,NaN,clock8-keyboard1.png
deit_sinsup,1,793,NaN,clock,clock,NaN,clock8-knife1.png
deit_sinsup,1,794,NaN,clock,clock,NaN,clock8-oven3.png
deit_sinsup,1,795,NaN,clock,clock,NaN,clock8-truck2.png
deit_sinsup,1,796,NaN,clock,clock,NaN,clock9-airplane1.png
deit_sinsup,1,797,NaN,clock,clock,NaN,clock9-bird2.png
deit_sinsup,1,798,NaN,clock,clock,NaN,clock9-cat1.png
deit_sinsup,1,799,NaN,clock,clock,NaN,clock9-chair3.png
deit_sinsup,1,800,NaN,clock,clock,NaN,clock9-keyboard2.png
deit_sinsup,1,801,NaN,dog,dog,NaN,dog1-airplane3.png
deit_sinsup,1,802,NaN,dog,dog,NaN,dog1-bear1.png
deit_sinsup,1,803,NaN,bottle,dog,NaN,dog1-bird1.png
deit_sinsup,1,804,NaN,dog,dog,NaN,dog1-boat3.png
deit_sinsup,1,805,NaN,elephant,dog,NaN,dog1-car2.png
deit_sinsup,1,806,NaN,dog,dog,NaN,dog1-cat3.png
deit_sinsup,1,807,NaN,dog,dog,NaN,dog1-chair1.png
deit_sinsup,1,808,NaN,dog,dog,NaN,dog1-dog2.png
deit_sinsup,1,809,NaN,dog,dog,NaN,dog1-knife3.png
deit_sinsup,1,810,NaN,bear,dog,NaN,dog10-airplane1.png
deit_sinsup,1,811,NaN,dog,dog,NaN,dog10-bicycle1.png
deit_sinsup,1,812,NaN,dog,dog,NaN,dog10-bottle1.png
deit_sinsup,1,813,NaN,dog,dog,NaN,dog10-car3.png
deit_sinsup,1,814,NaN,dog,dog,NaN,dog10-clock1.png
deit_sinsup,1,815,NaN,cat,dog,NaN,dog10-dog1.png
deit_sinsup,1,816,NaN,dog,dog,NaN,dog10-elephant1.png
deit_sinsup,1,817,NaN,dog,dog,NaN,dog10-keyboard2.png
deit_sinsup,1,818,NaN,dog,dog,NaN,dog10-oven2.png
deit_sinsup,1,819,NaN,oven,dog,NaN,dog10-truck2.png
deit_sinsup,1,820,NaN,dog,dog,NaN,dog2-airplane2.png
deit_sinsup,1,821,NaN,clock,dog,NaN,dog2-bicycle2.png
deit_sinsup,1,822,NaN,dog,dog,NaN,dog2-bottle2.png
deit_sinsup,1,823,NaN,bottle,dog,NaN,dog2-cat1.png
deit_sinsup,1,824,NaN,dog,dog,NaN,dog2-dog3.png
deit_sinsup,1,825,NaN,dog,dog,NaN,dog2-knife3.png
deit_sinsup,1,826,NaN,dog,dog,NaN,dog3-bear3.png
deit_sinsup,1,827,NaN,dog,dog,NaN,dog3-bird2.png
deit_sinsup,1,828,NaN,chair,dog,NaN,dog3-boat1.png
deit_sinsup,1,829,NaN,dog,dog,NaN,dog3-clock1.png
deit_sinsup,1,830,NaN,dog,dog,NaN,dog3-dog1.png
deit_sinsup,1,831,NaN,chair,dog,NaN,dog3-elephant2.png
deit_sinsup,1,832,NaN,dog,dog,NaN,dog3-keyboard1.png
deit_sinsup,1,833,NaN,dog,dog,NaN,dog3-knife3.png
deit_sinsup,1,834,NaN,keyboard,dog,NaN,dog3-truck2.png
deit_sinsup,1,835,NaN,dog,dog,NaN,dog4-airplane3.png
deit_sinsup,1,836,NaN,cat,dog,NaN,dog4-bicycle1.png
deit_sinsup,1,837,NaN,dog,dog,NaN,dog4-bird1.png
deit_sinsup,1,838,NaN,dog,dog,NaN,dog4-bottle2.png
deit_sinsup,1,839,NaN,dog,dog,NaN,dog4-cat3.png
deit_sinsup,1,840,NaN,clock,dog,NaN,dog4-chair1.png
deit_sinsup,1,841,NaN,dog,dog,NaN,dog4-clock1.png
deit_sinsup,1,842,NaN,cat,dog,NaN,dog4-elephant2.png
deit_sinsup,1,843,NaN,clock,dog,NaN,dog4-keyboard2.png
deit_sinsup,1,844,NaN,dog,dog,NaN,dog4-oven1.png
deit_sinsup,1,845,NaN,bird,dog,NaN,dog4-truck2.png
deit_sinsup,1,846,NaN,dog,dog,NaN,dog5-bear3.png
deit_sinsup,1,847,NaN,cat,dog,NaN,dog5-boat3.png
deit_sinsup,1,848,NaN,dog,dog,NaN,dog5-car3.png
deit_sinsup,1,849,NaN,dog,dog,NaN,dog5-elephant1.png
deit_sinsup,1,850,NaN,elephant,dog,NaN,dog5-knife2.png
deit_sinsup,1,851,NaN,bottle,dog,NaN,dog5-oven1.png
deit_sinsup,1,852,NaN,elephant,dog,NaN,dog5-truck2.png
deit_sinsup,1,853,NaN,elephant,dog,NaN,dog6-bicycle1.png
deit_sinsup,1,854,NaN,oven,dog,NaN,dog6-bird1.png
deit_sinsup,1,855,NaN,dog,dog,NaN,dog6-cat1.png
deit_sinsup,1,856,NaN,oven,dog,NaN,dog6-clock1.png
deit_sinsup,1,857,NaN,cat,dog,NaN,dog6-elephant2.png
deit_sinsup,1,858,NaN,oven,dog,NaN,dog6-truck2.png
deit_sinsup,1,859,NaN,dog,dog,NaN,dog7-bird3.png
deit_sinsup,1,860,NaN,dog,dog,NaN,dog7-car2.png
deit_sinsup,1,861,NaN,chair,dog,NaN,dog7-chair2.png
deit_sinsup,1,862,NaN,clock,dog,NaN,dog7-keyboard3.png
deit_sinsup,1,863,NaN,dog,dog,NaN,dog7-knife3.png
deit_sinsup,1,864,NaN,keyboard,dog,NaN,dog7-oven2.png
deit_sinsup,1,865,NaN,clock,dog,NaN,dog8-bear3.png
deit_sinsup,1,866,NaN,bicycle,dog,NaN,dog8-boat3.png
deit_sinsup,1,867,NaN,elephant,dog,NaN,dog8-bottle2.png
deit_sinsup,1,868,NaN,chair,dog,NaN,dog8-chair3.png
deit_sinsup,1,869,NaN,dog,dog,NaN,dog8-clock2.png
deit_sinsup,1,870,NaN,elephant,dog,NaN,dog8-dog3.png
deit_sinsup,1,871,NaN,knife,dog,NaN,dog8-keyboard3.png
deit_sinsup,1,872,NaN,dog,dog,NaN,dog8-oven3.png
deit_sinsup,1,873,NaN,dog,dog,NaN,dog9-airplane3.png
deit_sinsup,1,874,NaN,dog,dog,NaN,dog9-bear3.png
deit_sinsup,1,875,NaN,dog,dog,NaN,dog9-bicycle3.png
deit_sinsup,1,876,NaN,dog,dog,NaN,dog9-boat1.png
deit_sinsup,1,877,NaN,dog,dog,NaN,dog9-bottle1.png
deit_sinsup,1,878,NaN,knife,dog,NaN,dog9-car1.png
deit_sinsup,1,879,NaN,bear,dog,NaN,dog9-cat1.png
deit_sinsup,1,880,NaN,dog,dog,NaN,dog9-chair2.png
deit_sinsup,1,881,NaN,elephant,elephant,NaN,elephant1-airplane2.png
deit_sinsup,1,882,NaN,elephant,elephant,NaN,elephant1-bear2.png
deit_sinsup,1,883,NaN,elephant,elephant,NaN,elephant1-boat2.png
deit_sinsup,1,884,NaN,elephant,elephant,NaN,elephant1-bottle1.png
deit_sinsup,1,885,NaN,elephant,elephant,NaN,elephant1-car3.png
deit_sinsup,1,886,NaN,bottle,elephant,NaN,elephant1-chair1.png
deit_sinsup,1,887,NaN,elephant,elephant,NaN,elephant1-dog2.png
deit_sinsup,1,888,NaN,clock,elephant,NaN,elephant1-keyboard3.png
deit_sinsup,1,889,NaN,clock,elephant,NaN,elephant1-oven2.png
deit_sinsup,1,890,NaN,elephant,elephant,NaN,elephant10-bear1.png
deit_sinsup,1,891,NaN,elephant,elephant,NaN,elephant10-elephant1.png
deit_sinsup,1,892,NaN,elephant,elephant,NaN,elephant10-keyboard1.png
deit_sinsup,1,893,NaN,elephant,elephant,NaN,elephant10-knife3.png
deit_sinsup,1,894,NaN,elephant,elephant,NaN,elephant2-airplane3.png
deit_sinsup,1,895,NaN,elephant,elephant,NaN,elephant2-bear3.png
deit_sinsup,1,896,NaN,bottle,elephant,NaN,elephant2-bird1.png
deit_sinsup,1,897,NaN,bottle,elephant,NaN,elephant2-boat1.png
deit_sinsup,1,898,NaN,elephant,elephant,NaN,elephant2-bottle3.png
deit_sinsup,1,899,NaN,bottle,elephant,NaN,elephant2-cat1.png
deit_sinsup,1,900,NaN,chair,elephant,NaN,elephant2-clock1.png
deit_sinsup,1,901,NaN,elephant,elephant,NaN,elephant2-elephant3.png
deit_sinsup,1,902,NaN,bottle,elephant,NaN,elephant2-keyboard3.png
deit_sinsup,1,903,NaN,bird,elephant,NaN,elephant2-truck2.png
deit_sinsup,1,904,NaN,clock,elephant,NaN,elephant3-cat2.png
deit_sinsup,1,905,NaN,elephant,elephant,NaN,elephant3-chair1.png
deit_sinsup,1,906,NaN,elephant,elephant,NaN,elephant3-keyboard2.png
deit_sinsup,1,907,NaN,elephant,elephant,NaN,elephant3-knife1.png
deit_sinsup,1,908,NaN,elephant,elephant,NaN,elephant3-oven1.png
deit_sinsup,1,909,NaN,bottle,elephant,NaN,elephant3-truck1.png
deit_sinsup,1,910,NaN,elephant,elephant,NaN,elephant4-bicycle2.png
deit_sinsup,1,911,NaN,elephant,elephant,NaN,elephant4-bird1.png
deit_sinsup,1,912,NaN,elephant,elephant,NaN,elephant4-boat3.png
deit_sinsup,1,913,NaN,elephant,elephant,NaN,elephant4-car3.png
deit_sinsup,1,914,NaN,elephant,elephant,NaN,elephant4-chair3.png
deit_sinsup,1,915,NaN,elephant,elephant,NaN,elephant4-clock3.png
deit_sinsup,1,916,NaN,elephant,elephant,NaN,elephant4-oven1.png
deit_sinsup,1,917,NaN,elephant,elephant,NaN,elephant5-bear2.png
deit_sinsup,1,918,NaN,elephant,elephant,NaN,elephant5-bicycle3.png
deit_sinsup,1,919,NaN,elephant,elephant,NaN,elephant5-bottle2.png
deit_sinsup,1,920,NaN,elephant,elephant,NaN,elephant5-car1.png
deit_sinsup,1,921,NaN,elephant,elephant,NaN,elephant5-chair3.png
deit_sinsup,1,922,NaN,elephant,elephant,NaN,elephant5-elephant1.png
deit_sinsup,1,923,NaN,elephant,elephant,NaN,elephant5-truck1.png
deit_sinsup,1,924,NaN,elephant,elephant,NaN,elephant6-bicycle1.png
deit_sinsup,1,925,NaN,cat,elephant,NaN,elephant6-bird1.png
deit_sinsup,1,926,NaN,elephant,elephant,NaN,elephant6-bottle2.png
deit_sinsup,1,927,NaN,elephant,elephant,NaN,elephant6-car3.png
deit_sinsup,1,928,NaN,elephant,elephant,NaN,elephant6-cat2.png
deit_sinsup,1,929,NaN,cat,elephant,NaN,elephant6-dog2.png
deit_sinsup,1,930,NaN,elephant,elephant,NaN,elephant6-knife2.png
deit_sinsup,1,931,NaN,elephant,elephant,NaN,elephant6-oven1.png
deit_sinsup,1,932,NaN,airplane,elephant,NaN,elephant6-truck3.png
deit_sinsup,1,933,NaN,elephant,elephant,NaN,elephant7-airplane3.png
deit_sinsup,1,934,NaN,bear,elephant,NaN,elephant7-bear3.png
deit_sinsup,1,935,NaN,bear,elephant,NaN,elephant7-bird1.png
deit_sinsup,1,936,NaN,elephant,elephant,NaN,elephant7-bottle3.png
deit_sinsup,1,937,NaN,oven,elephant,NaN,elephant7-car3.png
deit_sinsup,1,938,NaN,cat,elephant,NaN,elephant7-cat1.png
deit_sinsup,1,939,NaN,elephant,elephant,NaN,elephant7-clock2.png
deit_sinsup,1,940,NaN,bear,elephant,NaN,elephant7-dog1.png
deit_sinsup,1,941,NaN,elephant,elephant,NaN,elephant7-keyboard3.png
deit_sinsup,1,942,NaN,cat,elephant,NaN,elephant7-knife2.png
deit_sinsup,1,943,NaN,elephant,elephant,NaN,elephant8-airplane3.png
deit_sinsup,1,944,NaN,elephant,elephant,NaN,elephant8-bicycle3.png
deit_sinsup,1,945,NaN,elephant,elephant,NaN,elephant8-bird2.png
deit_sinsup,1,946,NaN,elephant,elephant,NaN,elephant8-boat2.png
deit_sinsup,1,947,NaN,bottle,elephant,NaN,elephant8-cat1.png
deit_sinsup,1,948,NaN,elephant,elephant,NaN,elephant8-clock2.png
deit_sinsup,1,949,NaN,cat,elephant,NaN,elephant8-dog1.png
deit_sinsup,1,950,NaN,elephant,elephant,NaN,elephant8-elephant1.png
deit_sinsup,1,951,NaN,keyboard,elephant,NaN,elephant8-knife2.png
deit_sinsup,1,952,NaN,elephant,elephant,NaN,elephant8-oven3.png
deit_sinsup,1,953,NaN,chair,elephant,NaN,elephant8-truck3.png
deit_sinsup,1,954,NaN,elephant,elephant,NaN,elephant9-airplane2.png
deit_sinsup,1,955,NaN,elephant,elephant,NaN,elephant9-bicycle2.png
deit_sinsup,1,956,NaN,elephant,elephant,NaN,elephant9-boat3.png
deit_sinsup,1,957,NaN,elephant,elephant,NaN,elephant9-chair2.png
deit_sinsup,1,958,NaN,elephant,elephant,NaN,elephant9-clock3.png
deit_sinsup,1,959,NaN,elephant,elephant,NaN,elephant9-dog3.png
deit_sinsup,1,960,NaN,elephant,elephant,NaN,elephant9-elephant3.png
deit_sinsup,1,961,NaN,clock,keyboard,NaN,keyboard1-airplane2.png
deit_sinsup,1,962,NaN,knife,keyboard,NaN,keyboard1-bear2.png
deit_sinsup,1,963,NaN,keyboard,keyboard,NaN,keyboard1-bird2.png
deit_sinsup,1,964,NaN,oven,keyboard,NaN,keyboard1-car3.png
deit_sinsup,1,965,NaN,keyboard,keyboard,NaN,keyboard1-chair2.png
deit_sinsup,1,966,NaN,boat,keyboard,NaN,keyboard1-clock1.png
deit_sinsup,1,967,NaN,keyboard,keyboard,NaN,keyboard1-dog3.png
deit_sinsup,1,968,NaN,clock,keyboard,NaN,keyboard1-elephant3.png
deit_sinsup,1,969,NaN,keyboard,keyboard,NaN,keyboard10-airplane3.png
deit_sinsup,1,970,NaN,keyboard,keyboard,NaN,keyboard10-boat2.png
deit_sinsup,1,971,NaN,keyboard,keyboard,NaN,keyboard10-car1.png
deit_sinsup,1,972,NaN,bicycle,keyboard,NaN,keyboard10-keyboard1.png
deit_sinsup,1,973,NaN,cat,keyboard,NaN,keyboard10-oven3.png
deit_sinsup,1,974,NaN,boat,keyboard,NaN,keyboard10-truck1.png
deit_sinsup,1,975,NaN,bird,keyboard,NaN,keyboard2-bicycle3.png
deit_sinsup,1,976,NaN,keyboard,keyboard,NaN,keyboard2-bottle1.png
deit_sinsup,1,977,NaN,bicycle,keyboard,NaN,keyboard2-clock1.png
deit_sinsup,1,978,NaN,oven,keyboard,NaN,keyboard2-elephant1.png
deit_sinsup,1,979,NaN,oven,keyboard,NaN,keyboard2-knife1.png
deit_sinsup,1,980,NaN,oven,keyboard,NaN,keyboard3-bicycle2.png
deit_sinsup,1,981,NaN,oven,keyboard,NaN,keyboard3-bird3.png
deit_sinsup,1,982,NaN,clock,keyboard,NaN,keyboard3-boat1.png
deit_sinsup,1,983,NaN,clock,keyboard,NaN,keyboard3-car2.png
deit_sinsup,1,984,NaN,clock,keyboard,NaN,keyboard3-cat1.png
deit_sinsup,1,985,NaN,chair,keyboard,NaN,keyboard3-clock3.png
deit_sinsup,1,986,NaN,chair,keyboard,NaN,keyboard3-elephant2.png
deit_sinsup,1,987,NaN,oven,keyboard,NaN,keyboard4-bird1.png
deit_sinsup,1,988,NaN,chair,keyboard,NaN,keyboard4-bottle2.png
deit_sinsup,1,989,NaN,clock,keyboard,NaN,keyboard4-cat2.png
deit_sinsup,1,990,NaN,bicycle,keyboard,NaN,keyboard4-clock2.png
deit_sinsup,1,991,NaN,bear,keyboard,NaN,keyboard4-keyboard2.png
deit_sinsup,1,992,NaN,knife,keyboard,NaN,keyboard4-knife2.png
deit_sinsup,1,993,NaN,keyboard,keyboard,NaN,keyboard4-oven2.png
deit_sinsup,1,994,NaN,knife,keyboard,NaN,keyboard4-truck3.png
deit_sinsup,1,995,NaN,keyboard,keyboard,NaN,keyboard5-airplane3.png
deit_sinsup,1,996,NaN,elephant,keyboard,NaN,keyboard5-bear3.png
deit_sinsup,1,997,NaN,keyboard,keyboard,NaN,keyboard5-bicycle1.png
deit_sinsup,1,998,NaN,knife,keyboard,NaN,keyboard5-bird3.png
deit_sinsup,1,999,NaN,keyboard,keyboard,NaN,keyboard5-bottle1.png
deit_sinsup,1,1000,NaN,knife,keyboard,NaN,keyboard5-cat1.png
deit_sinsup,1,1001,NaN,keyboard,keyboard,NaN,keyboard5-dog3.png
deit_sinsup,1,1002,NaN,keyboard,keyboard,NaN,keyboard5-keyboard1.png
deit_sinsup,1,1003,NaN,keyboard,keyboard,NaN,keyboard5-knife2.png
deit_sinsup,1,1004,NaN,truck,keyboard,NaN,keyboard5-oven2.png
deit_sinsup,1,1005,NaN,knife,keyboard,NaN,keyboard6-bear2.png
deit_sinsup,1,1006,NaN,bicycle,keyboard,NaN,keyboard6-bicycle1.png
deit_sinsup,1,1007,NaN,clock,keyboard,NaN,keyboard6-boat2.png
deit_sinsup,1,1008,NaN,clock,keyboard,NaN,keyboard6-bottle2.png
deit_sinsup,1,1009,NaN,bottle,keyboard,NaN,keyboard6-car2.png
deit_sinsup,1,1010,NaN,keyboard,keyboard,NaN,keyboard6-chair1.png
deit_sinsup,1,1011,NaN,knife,keyboard,NaN,keyboard6-dog2.png
deit_sinsup,1,1012,NaN,oven,keyboard,NaN,keyboard6-elephant1.png
deit_sinsup,1,1013,NaN,knife,keyboard,NaN,keyboard6-knife2.png
deit_sinsup,1,1014,NaN,bird,keyboard,NaN,keyboard7-bear2.png
deit_sinsup,1,1015,NaN,clock,keyboard,NaN,keyboard7-boat2.png
deit_sinsup,1,1016,NaN,keyboard,keyboard,NaN,keyboard7-bottle1.png
deit_sinsup,1,1017,NaN,bicycle,keyboard,NaN,keyboard7-car3.png
deit_sinsup,1,1018,NaN,boat,keyboard,NaN,keyboard7-chair3.png
deit_sinsup,1,1019,NaN,bottle,keyboard,NaN,keyboard7-clock3.png
deit_sinsup,1,1020,NaN,keyboard,keyboard,NaN,keyboard7-dog1.png
deit_sinsup,1,1021,NaN,keyboard,keyboard,NaN,keyboard7-knife1.png
deit_sinsup,1,1022,NaN,truck,keyboard,NaN,keyboard7-oven2.png
deit_sinsup,1,1023,NaN,boat,keyboard,NaN,keyboard7-truck2.png
deit_sinsup,1,1024,NaN,keyboard,keyboard,NaN,keyboard8-airplane2.png
deit_sinsup,1,1025,NaN,oven,keyboard,NaN,keyboard8-cat3.png
deit_sinsup,1,1026,NaN,bottle,keyboard,NaN,keyboard8-chair2.png
deit_sinsup,1,1027,NaN,keyboard,keyboard,NaN,keyboard8-dog3.png
deit_sinsup,1,1028,NaN,keyboard,keyboard,NaN,keyboard8-keyboard2.png
deit_sinsup,1,1029,NaN,keyboard,keyboard,NaN,keyboard8-oven1.png
deit_sinsup,1,1030,NaN,chair,keyboard,NaN,keyboard8-truck3.png
deit_sinsup,1,1031,NaN,keyboard,keyboard,NaN,keyboard9-airplane3.png
deit_sinsup,1,1032,NaN,cat,keyboard,NaN,keyboard9-bear2.png
deit_sinsup,1,1033,NaN,keyboard,keyboard,NaN,keyboard9-bicycle2.png
deit_sinsup,1,1034,NaN,oven,keyboard,NaN,keyboard9-bird1.png
deit_sinsup,1,1035,NaN,keyboard,keyboard,NaN,keyboard9-boat2.png
deit_sinsup,1,1036,NaN,cat,keyboard,NaN,keyboard9-cat1.png
deit_sinsup,1,1037,NaN,keyboard,keyboard,NaN,keyboard9-chair2.png
deit_sinsup,1,1038,NaN,oven,keyboard,NaN,keyboard9-elephant2.png
deit_sinsup,1,1039,NaN,keyboard,keyboard,NaN,keyboard9-keyboard2.png
deit_sinsup,1,1040,NaN,keyboard,keyboard,NaN,keyboard9-truck3.png
deit_sinsup,1,1041,NaN,bear,knife,NaN,knife1-airplane1.png
deit_sinsup,1,1042,NaN,knife,knife,NaN,knife1-bird2.png
deit_sinsup,1,1043,NaN,truck,knife,NaN,knife1-car3.png
deit_sinsup,1,1044,NaN,knife,knife,NaN,knife1-chair1.png
deit_sinsup,1,1045,NaN,truck,knife,NaN,knife1-clock2.png
deit_sinsup,1,1046,NaN,knife,knife,NaN,knife1-dog1.png
deit_sinsup,1,1047,NaN,clock,knife,NaN,knife1-elephant1.png
deit_sinsup,1,1048,NaN,knife,knife,NaN,knife1-keyboard3.png
deit_sinsup,1,1049,NaN,knife,knife,NaN,knife1-oven1.png
deit_sinsup,1,1050,NaN,bird,knife,NaN,knife1-truck2.png
deit_sinsup,1,1051,NaN,bear,knife,NaN,knife10-bear3.png
deit_sinsup,1,1052,NaN,clock,knife,NaN,knife10-chair1.png
deit_sinsup,1,1053,NaN,knife,knife,NaN,knife10-dog1.png
deit_sinsup,1,1054,NaN,knife,knife,NaN,knife10-elephant3.png
deit_sinsup,1,1055,NaN,knife,knife,NaN,knife10-keyboard3.png
deit_sinsup,1,1056,NaN,bottle,knife,NaN,knife10-knife1.png
deit_sinsup,1,1057,NaN,oven,knife,NaN,knife10-oven3.png
deit_sinsup,1,1058,NaN,clock,knife,NaN,knife2-bear2.png
deit_sinsup,1,1059,NaN,bicycle,knife,NaN,knife2-bicycle3.png
deit_sinsup,1,1060,NaN,knife,knife,NaN,knife2-bird1.png
deit_sinsup,1,1061,NaN,truck,knife,NaN,knife2-bottle2.png
deit_sinsup,1,1062,NaN,bicycle,knife,NaN,knife2-car3.png
deit_sinsup,1,1063,NaN,knife,knife,NaN,knife2-cat3.png
deit_sinsup,1,1064,NaN,knife,knife,NaN,knife2-dog1.png
deit_sinsup,1,1065,NaN,elephant,knife,NaN,knife2-elephant2.png
deit_sinsup,1,1066,NaN,truck,knife,NaN,knife2-truck2.png
deit_sinsup,1,1067,NaN,airplane,knife,NaN,knife3-bear2.png
deit_sinsup,1,1068,NaN,knife,knife,NaN,knife3-cat1.png
deit_sinsup,1,1069,NaN,clock,knife,NaN,knife3-clock2.png
deit_sinsup,1,1070,NaN,clock,knife,NaN,knife3-keyboard3.png
deit_sinsup,1,1071,NaN,airplane,knife,NaN,knife3-knife1.png
deit_sinsup,1,1072,NaN,airplane,knife,NaN,knife4-airplane3.png
deit_sinsup,1,1073,NaN,bear,knife,NaN,knife4-bear1.png
deit_sinsup,1,1074,NaN,knife,knife,NaN,knife4-boat1.png
deit_sinsup,1,1075,NaN,clock,knife,NaN,knife4-car2.png
deit_sinsup,1,1076,NaN,clock,knife,NaN,knife4-cat2.png
deit_sinsup,1,1077,NaN,clock,knife,NaN,knife4-clock3.png
deit_sinsup,1,1078,NaN,knife,knife,NaN,knife4-keyboard1.png
deit_sinsup,1,1079,NaN,knife,knife,NaN,knife4-knife2.png
deit_sinsup,1,1080,NaN,airplane,knife,NaN,knife4-oven2.png
deit_sinsup,1,1081,NaN,elephant,knife,NaN,knife5-bicycle2.png
deit_sinsup,1,1082,NaN,knife,knife,NaN,knife5-cat2.png
deit_sinsup,1,1083,NaN,boat,knife,NaN,knife5-clock1.png
deit_sinsup,1,1084,NaN,elephant,knife,NaN,knife5-dog1.png
deit_sinsup,1,1085,NaN,knife,knife,NaN,knife5-keyboard3.png
deit_sinsup,1,1086,NaN,car,knife,NaN,knife5-knife3.png
deit_sinsup,1,1087,NaN,truck,knife,NaN,knife5-oven2.png
deit_sinsup,1,1088,NaN,clock,knife,NaN,knife5-truck3.png
deit_sinsup,1,1089,NaN,knife,knife,NaN,knife6-airplane1.png
deit_sinsup,1,1090,NaN,cat,knife,NaN,knife6-bicycle1.png
deit_sinsup,1,1091,NaN,oven,knife,NaN,knife6-bird1.png
deit_sinsup,1,1092,NaN,oven,knife,NaN,knife6-boat3.png
deit_sinsup,1,1093,NaN,knife,knife,NaN,knife6-bottle3.png
deit_sinsup,1,1094,NaN,boat,knife,NaN,knife6-chair3.png
deit_sinsup,1,1095,NaN,clock,knife,NaN,knife6-clock2.png
deit_sinsup,1,1096,NaN,knife,knife,NaN,knife6-dog2.png
deit_sinsup,1,1097,NaN,truck,knife,NaN,knife6-knife1.png
deit_sinsup,1,1098,NaN,oven,knife,NaN,knife6-oven3.png
deit_sinsup,1,1099,NaN,oven,knife,NaN,knife6-truck1.png
deit_sinsup,1,1100,NaN,knife,knife,NaN,knife7-airplane3.png
deit_sinsup,1,1101,NaN,knife,knife,NaN,knife7-bird3.png
deit_sinsup,1,1102,NaN,oven,knife,NaN,knife7-boat3.png
deit_sinsup,1,1103,NaN,cat,knife,NaN,knife7-bottle3.png
deit_sinsup,1,1104,NaN,clock,knife,NaN,knife7-car2.png
deit_sinsup,1,1105,NaN,oven,knife,NaN,knife7-chair2.png
deit_sinsup,1,1106,NaN,knife,knife,NaN,knife7-elephant2.png
deit_sinsup,1,1107,NaN,knife,knife,NaN,knife8-bicycle1.png
deit_sinsup,1,1108,NaN,truck,knife,NaN,knife8-boat1.png
deit_sinsup,1,1109,NaN,bear,knife,NaN,knife8-bottle3.png
deit_sinsup,1,1110,NaN,oven,knife,NaN,knife8-car2.png
deit_sinsup,1,1111,NaN,bottle,knife,NaN,knife8-cat2.png
deit_sinsup,1,1112,NaN,keyboard,knife,NaN,knife8-truck3.png
deit_sinsup,1,1113,NaN,knife,knife,NaN,knife9-airplane2.png
deit_sinsup,1,1114,NaN,bird,knife,NaN,knife9-bear3.png
deit_sinsup,1,1115,NaN,truck,knife,NaN,knife9-bicycle1.png
deit_sinsup,1,1116,NaN,elephant,knife,NaN,knife9-bird1.png
deit_sinsup,1,1117,NaN,chair,knife,NaN,knife9-boat1.png
deit_sinsup,1,1118,NaN,clock,knife,NaN,knife9-bottle2.png
deit_sinsup,1,1119,NaN,elephant,knife,NaN,knife9-chair1.png
deit_sinsup,1,1120,NaN,clock,knife,NaN,knife9-elephant2.png
deit_sinsup,1,1121,NaN,oven,oven,NaN,oven1-bird3.png
deit_sinsup,1,1122,NaN,oven,oven,NaN,oven1-boat3.png
deit_sinsup,1,1123,NaN,oven,oven,NaN,oven1-cat1.png
deit_sinsup,1,1124,NaN,oven,oven,NaN,oven1-clock3.png
deit_sinsup,1,1125,NaN,oven,oven,NaN,oven1-dog3.png
deit_sinsup,1,1126,NaN,oven,oven,NaN,oven10-airplane2.png
deit_sinsup,1,1127,NaN,oven,oven,NaN,oven10-bear1.png
deit_sinsup,1,1128,NaN,oven,oven,NaN,oven10-bicycle1.png
deit_sinsup,1,1129,NaN,oven,oven,NaN,oven10-boat2.png
deit_sinsup,1,1130,NaN,oven,oven,NaN,oven10-cat2.png
deit_sinsup,1,1131,NaN,oven,oven,NaN,oven10-oven3.png
deit_sinsup,1,1132,NaN,oven,oven,NaN,oven10-truck2.png
deit_sinsup,1,1133,NaN,bottle,oven,NaN,oven2-bear3.png
deit_sinsup,1,1134,NaN,chair,oven,NaN,oven2-bicycle1.png
deit_sinsup,1,1135,NaN,clock,oven,NaN,oven2-bird2.png
deit_sinsup,1,1136,NaN,oven,oven,NaN,oven2-boat3.png
deit_sinsup,1,1137,NaN,oven,oven,NaN,oven2-bottle1.png
deit_sinsup,1,1138,NaN,oven,oven,NaN,oven2-car1.png
deit_sinsup,1,1139,NaN,oven,oven,NaN,oven2-chair1.png
deit_sinsup,1,1140,NaN,oven,oven,NaN,oven2-dog3.png
deit_sinsup,1,1141,NaN,oven,oven,NaN,oven2-oven3.png
deit_sinsup,1,1142,NaN,oven,oven,NaN,oven2-truck3.png
deit_sinsup,1,1143,NaN,oven,oven,NaN,oven3-airplane1.png
deit_sinsup,1,1144,NaN,clock,oven,NaN,oven3-bear2.png
deit_sinsup,1,1145,NaN,oven,oven,NaN,oven3-boat3.png
deit_sinsup,1,1146,NaN,oven,oven,NaN,oven3-bottle3.png
deit_sinsup,1,1147,NaN,oven,oven,NaN,oven3-car2.png
deit_sinsup,1,1148,NaN,clock,oven,NaN,oven3-cat2.png
deit_sinsup,1,1149,NaN,oven,oven,NaN,oven3-clock3.png
deit_sinsup,1,1150,NaN,oven,oven,NaN,oven3-elephant3.png
deit_sinsup,1,1151,NaN,chair,oven,NaN,oven3-knife1.png
deit_sinsup,1,1152,NaN,oven,oven,NaN,oven3-truck1.png
deit_sinsup,1,1153,NaN,chair,oven,NaN,oven4-bicycle2.png
deit_sinsup,1,1154,NaN,oven,oven,NaN,oven4-bottle2.png
deit_sinsup,1,1155,NaN,oven,oven,NaN,oven4-car1.png
deit_sinsup,1,1156,NaN,keyboard,oven,NaN,oven4-chair1.png
deit_sinsup,1,1157,NaN,oven,oven,NaN,oven4-clock2.png
deit_sinsup,1,1158,NaN,cat,oven,NaN,oven4-dog1.png
deit_sinsup,1,1159,NaN,oven,oven,NaN,oven4-elephant3.png
deit_sinsup,1,1160,NaN,oven,oven,NaN,oven4-keyboard3.png
deit_sinsup,1,1161,NaN,oven,oven,NaN,oven4-knife2.png
deit_sinsup,1,1162,NaN,oven,oven,NaN,oven4-truck3.png
deit_sinsup,1,1163,NaN,oven,oven,NaN,oven5-airplane1.png
deit_sinsup,1,1164,NaN,oven,oven,NaN,oven5-bicycle1.png
deit_sinsup,1,1165,NaN,oven,oven,NaN,oven5-bird1.png
deit_sinsup,1,1166,NaN,clock,oven,NaN,oven5-bottle3.png
deit_sinsup,1,1167,NaN,oven,oven,NaN,oven5-dog3.png
deit_sinsup,1,1168,NaN,oven,oven,NaN,oven5-elephant1.png
deit_sinsup,1,1169,NaN,oven,oven,NaN,oven5-keyboard2.png
deit_sinsup,1,1170,NaN,oven,oven,NaN,oven6-airplane3.png
deit_sinsup,1,1171,NaN,oven,oven,NaN,oven6-bear2.png
deit_sinsup,1,1172,NaN,chair,oven,NaN,oven6-bicycle1.png
deit_sinsup,1,1173,NaN,oven,oven,NaN,oven6-bird1.png
deit_sinsup,1,1174,NaN,truck,oven,NaN,oven6-chair3.png
deit_sinsup,1,1175,NaN,oven,oven,NaN,oven6-elephant2.png
deit_sinsup,1,1176,NaN,oven,oven,NaN,oven6-knife3.png
deit_sinsup,1,1177,NaN,oven,oven,NaN,oven6-oven3.png
deit_sinsup,1,1178,NaN,oven,oven,NaN,oven6-truck1.png
deit_sinsup,1,1179,NaN,chair,oven,NaN,oven7-bottle1.png
deit_sinsup,1,1180,NaN,oven,oven,NaN,oven7-car3.png
deit_sinsup,1,1181,NaN,chair,oven,NaN,oven7-cat1.png
deit_sinsup,1,1182,NaN,knife,oven,NaN,oven7-clock2.png
deit_sinsup,1,1183,NaN,cat,oven,NaN,oven7-dog2.png
deit_sinsup,1,1184,NaN,chair,oven,NaN,oven7-elephant1.png
deit_sinsup,1,1185,NaN,oven,oven,NaN,oven7-keyboard1.png
deit_sinsup,1,1186,NaN,oven,oven,NaN,oven7-oven1.png
deit_sinsup,1,1187,NaN,oven,oven,NaN,oven8-cat3.png
deit_sinsup,1,1188,NaN,oven,oven,NaN,oven8-chair1.png
deit_sinsup,1,1189,NaN,clock,oven,NaN,oven8-keyboard3.png
deit_sinsup,1,1190,NaN,bicycle,oven,NaN,oven8-knife2.png
deit_sinsup,1,1191,NaN,oven,oven,NaN,oven9-airplane2.png
deit_sinsup,1,1192,NaN,oven,oven,NaN,oven9-bear2.png
deit_sinsup,1,1193,NaN,oven,oven,NaN,oven9-bird3.png
deit_sinsup,1,1194,NaN,oven,oven,NaN,oven9-boat2.png
deit_sinsup,1,1195,NaN,oven,oven,NaN,oven9-car2.png
deit_sinsup,1,1196,NaN,oven,oven,NaN,oven9-chair1.png
deit_sinsup,1,1197,NaN,oven,oven,NaN,oven9-clock2.png
deit_sinsup,1,1198,NaN,oven,oven,NaN,oven9-keyboard1.png
deit_sinsup,1,1199,NaN,oven,oven,NaN,oven9-knife3.png
deit_sinsup,1,1200,NaN,oven,oven,NaN,oven9-oven1.png
deit_sinsup,1,1201,NaN,cat,truck,NaN,truck1-bear1.png
deit_sinsup,1,1202,NaN,truck,truck,NaN,truck1-bicycle3.png
deit_sinsup,1,1203,NaN,truck,truck,NaN,truck1-bird1.png
deit_sinsup,1,1204,NaN,truck,truck,NaN,truck1-car3.png
deit_sinsup,1,1205,NaN,cat,truck,NaN,truck1-cat1.png
deit_sinsup,1,1206,NaN,truck,truck,NaN,truck1-chair2.png
deit_sinsup,1,1207,NaN,truck,truck,NaN,truck1-clock3.png
deit_sinsup,1,1208,NaN,truck,truck,NaN,truck1-dog1.png
deit_sinsup,1,1209,NaN,truck,truck,NaN,truck1-knife1.png
deit_sinsup,1,1210,NaN,truck,truck,NaN,truck10-airplane1.png
deit_sinsup,1,1211,NaN,chair,truck,NaN,truck10-bicycle1.png
deit_sinsup,1,1212,NaN,truck,truck,NaN,truck10-car3.png
deit_sinsup,1,1213,NaN,truck,truck,NaN,truck10-clock1.png
deit_sinsup,1,1214,NaN,truck,truck,NaN,truck10-elephant3.png
deit_sinsup,1,1215,NaN,truck,truck,NaN,truck10-truck3.png
deit_sinsup,1,1216,NaN,truck,truck,NaN,truck2-airplane3.png
deit_sinsup,1,1217,NaN,truck,truck,NaN,truck2-bicycle2.png
deit_sinsup,1,1218,NaN,truck,truck,NaN,truck2-bird2.png
deit_sinsup,1,1219,NaN,truck,truck,NaN,truck2-boat3.png
deit_sinsup,1,1220,NaN,truck,truck,NaN,truck2-bottle3.png
deit_sinsup,1,1221,NaN,truck,truck,NaN,truck2-car3.png
deit_sinsup,1,1222,NaN,truck,truck,NaN,truck2-chair1.png
deit_sinsup,1,1223,NaN,truck,truck,NaN,truck2-clock1.png
deit_sinsup,1,1224,NaN,truck,truck,NaN,truck2-elephant1.png
deit_sinsup,1,1225,NaN,truck,truck,NaN,truck2-keyboard1.png
deit_sinsup,1,1226,NaN,truck,truck,NaN,truck2-oven3.png
deit_sinsup,1,1227,NaN,dog,truck,NaN,truck3-bear3.png
deit_sinsup,1,1228,NaN,truck,truck,NaN,truck3-bicycle1.png
deit_sinsup,1,1229,NaN,truck,truck,NaN,truck3-bird2.png
deit_sinsup,1,1230,NaN,truck,truck,NaN,truck3-car3.png
deit_sinsup,1,1231,NaN,cat,truck,NaN,truck3-cat1.png
deit_sinsup,1,1232,NaN,truck,truck,NaN,truck3-chair2.png
deit_sinsup,1,1233,NaN,clock,truck,NaN,truck3-clock3.png
deit_sinsup,1,1234,NaN,bottle,truck,NaN,truck3-dog3.png
deit_sinsup,1,1235,NaN,cat,truck,NaN,truck3-keyboard3.png
deit_sinsup,1,1236,NaN,truck,truck,NaN,truck3-knife2.png
deit_sinsup,1,1237,NaN,truck,truck,NaN,truck3-oven2.png
deit_sinsup,1,1238,NaN,truck,truck,NaN,truck4-airplane3.png
deit_sinsup,1,1239,NaN,bear,truck,NaN,truck4-bear1.png
deit_sinsup,1,1240,NaN,truck,truck,NaN,truck4-boat3.png
deit_sinsup,1,1241,NaN,truck,truck,NaN,truck4-bottle2.png
deit_sinsup,1,1242,NaN,truck,truck,NaN,truck4-knife1.png
deit_sinsup,1,1243,NaN,truck,truck,NaN,truck4-oven2.png
deit_sinsup,1,1244,NaN,oven,truck,NaN,truck5-airplane2.png
deit_sinsup,1,1245,NaN,truck,truck,NaN,truck5-bird2.png
deit_sinsup,1,1246,NaN,truck,truck,NaN,truck5-car1.png
deit_sinsup,1,1247,NaN,truck,truck,NaN,truck5-cat3.png
deit_sinsup,1,1248,NaN,truck,truck,NaN,truck5-dog3.png
deit_sinsup,1,1249,NaN,truck,truck,NaN,truck5-keyboard1.png
deit_sinsup,1,1250,NaN,truck,truck,NaN,truck5-knife3.png
deit_sinsup,1,1251,NaN,truck,truck,NaN,truck5-truck1.png
deit_sinsup,1,1252,NaN,cat,truck,NaN,truck6-bear2.png
deit_sinsup,1,1253,NaN,truck,truck,NaN,truck6-bicycle1.png
deit_sinsup,1,1254,NaN,truck,truck,NaN,truck6-boat2.png
deit_sinsup,1,1255,NaN,knife,truck,NaN,truck6-bottle3.png
deit_sinsup,1,1256,NaN,truck,truck,NaN,truck6-cat2.png
deit_sinsup,1,1257,NaN,truck,truck,NaN,truck6-clock2.png
deit_sinsup,1,1258,NaN,knife,truck,NaN,truck6-dog2.png
deit_sinsup,1,1259,NaN,truck,truck,NaN,truck6-knife2.png
deit_sinsup,1,1260,NaN,truck,truck,NaN,truck6-oven3.png
deit_sinsup,1,1261,NaN,truck,truck,NaN,truck6-truck2.png
deit_sinsup,1,1262,NaN,oven,truck,NaN,truck7-bear2.png
deit_sinsup,1,1263,NaN,truck,truck,NaN,truck7-bird2.png
deit_sinsup,1,1264,NaN,truck,truck,NaN,truck7-boat1.png
deit_sinsup,1,1265,NaN,truck,truck,NaN,truck7-chair2.png
deit_sinsup,1,1266,NaN,truck,truck,NaN,truck7-elephant2.png
deit_sinsup,1,1267,NaN,clock,truck,NaN,truck7-keyboard3.png
deit_sinsup,1,1268,NaN,truck,truck,NaN,truck7-oven2.png
deit_sinsup,1,1269,NaN,truck,truck,NaN,truck7-truck2.png
deit_sinsup,1,1270,NaN,truck,truck,NaN,truck8-bottle2.png
deit_sinsup,1,1271,NaN,truck,truck,NaN,truck8-cat2.png
deit_sinsup,1,1272,NaN,truck,truck,NaN,truck8-dog3.png
deit_sinsup,1,1273,NaN,truck,truck,NaN,truck8-elephant1.png
deit_sinsup,1,1274,NaN,truck,truck,NaN,truck8-keyboard2.png
deit_sinsup,1,1275,NaN,truck,truck,NaN,truck9-airplane2.png
deit_sinsup,1,1276,NaN,truck,truck,NaN,truck9-boat3.png
deit_sinsup,1,1277,NaN,truck,truck,NaN,truck9-bottle2.png
deit_sinsup,1,1278,NaN,boat,truck,NaN,truck9-chair3.png
deit_sinsup,1,1279,NaN,truck,truck,NaN,truck9-elephant1.png
deit_sinsup,1,1280,NaN,truck,truck,NaN,truck9-truck3.png
