subj,session,trial,rt,object_response,category,condition,imagename
clip,1,1,NaN,n01440764,n01440764,NaN,ILSVRC2012_val_00000293.JPEG
clip,1,2,NaN,n01440764,n01440764,NaN,ILSVRC2012_val_00002138.JPEG
clip,1,3,NaN,n01440764,n01440764,NaN,ILSVRC2012_val_00003014.JPEG
clip,1,4,NaN,n01440764,n01440764,NaN,ILSVRC2012_val_00006697.JPEG
clip,1,5,NaN,n01440764,n01440764,NaN,ILSVRC2012_val_00007197.JPEG
clip,1,6,NaN,n01440764,n01440764,NaN,ILSVRC2012_val_00009111.JPEG
clip,1,7,NaN,n01440764,n01440764,NaN,ILSVRC2012_val_00009191.JPEG
clip,1,8,NaN,n01440764,n01440764,NaN,ILSVRC2012_val_00009346.JPEG
clip,1,9,NaN,n01440764,n01440764,NaN,ILSVRC2012_val_00009379.JPEG
clip,1,10,NaN,n01440764,n01440764,NaN,ILSVRC2012_val_00009396.JPEG
clip,1,11,NaN,n02011460,n01440764,NaN,ILSVRC2012_val_00010306.JPEG
clip,1,12,NaN,n01440764,n01440764,NaN,ILSVRC2012_val_00011233.JPEG
clip,1,13,NaN,n01440764,n01440764,NaN,ILSVRC2012_val_00011993.JPEG
clip,1,14,NaN,n01440764,n01440764,NaN,ILSVRC2012_val_00012503.JPEG
clip,1,15,NaN,n01440764,n01440764,NaN,ILSVRC2012_val_00013716.JPEG
clip,1,16,NaN,n01440764,n01440764,NaN,ILSVRC2012_val_00016018.JPEG
clip,1,17,NaN,n01440764,n01440764,NaN,ILSVRC2012_val_00017472.JPEG
clip,1,18,NaN,n01440764,n01440764,NaN,ILSVRC2012_val_00017699.JPEG
clip,1,19,NaN,n01440764,n01440764,NaN,ILSVRC2012_val_00017700.JPEG
clip,1,20,NaN,n01440764,n01440764,NaN,ILSVRC2012_val_00017995.JPEG
clip,1,21,NaN,n01440764,n01440764,NaN,ILSVRC2012_val_00018317.JPEG
clip,1,22,NaN,n01440764,n01440764,NaN,ILSVRC2012_val_00021740.JPEG
clip,1,23,NaN,n01440764,n01440764,NaN,ILSVRC2012_val_00023559.JPEG
clip,1,24,NaN,n01440764,n01440764,NaN,ILSVRC2012_val_00024235.JPEG
clip,1,25,NaN,n01440764,n01440764,NaN,ILSVRC2012_val_00024327.JPEG
clip,1,26,NaN,n01440764,n01440764,NaN,ILSVRC2012_val_00025129.JPEG
clip,1,27,NaN,n01440764,n01440764,NaN,ILSVRC2012_val_00025527.JPEG
clip,1,28,NaN,n01440764,n01440764,NaN,ILSVRC2012_val_00026064.JPEG
clip,1,29,NaN,n01440764,n01440764,NaN,ILSVRC2012_val_00026397.JPEG
clip,1,30,NaN,n01440764,n01440764,NaN,ILSVRC2012_val_00028158.JPEG
clip,1,31,NaN,n01440764,n01440764,NaN,ILSVRC2012_val_00029930.JPEG
clip,1,32,NaN,n01440764,n01440764,NaN,ILSVRC2012_val_00030740.JPEG
clip,1,33,NaN,n01440764,n01440764,NaN,ILSVRC2012_val_00031094.JPEG
clip,1,34,NaN,n01440764,n01440764,NaN,ILSVRC2012_val_00031333.JPEG
clip,1,35,NaN,n01440764,n01440764,NaN,ILSVRC2012_val_00034654.JPEG
clip,1,36,NaN,n01440764,n01440764,NaN,ILSVRC2012_val_00037375.JPEG
clip,1,37,NaN,n01440764,n01440764,NaN,ILSVRC2012_val_00037383.JPEG
clip,1,38,NaN,n01440764,n01440764,NaN,ILSVRC2012_val_00037596.JPEG
clip,1,39,NaN,n01440764,n01440764,NaN,ILSVRC2012_val_00037834.JPEG
clip,1,40,NaN,n01440764,n01440764,NaN,ILSVRC2012_val_00037861.JPEG
clip,1,41,NaN,n01440764,n01440764,NaN,ILSVRC2012_val_00039905.JPEG
clip,1,42,NaN,n01440764,n01440764,NaN,ILSVRC2012_val_00040358.JPEG
clip,1,43,NaN,n01440764,n01440764,NaN,ILSVRC2012_val_00040833.JPEG
clip,1,44,NaN,n01440764,n01440764,NaN,ILSVRC2012_val_00041939.JPEG
clip,1,45,NaN,n01440764,n01440764,NaN,ILSVRC2012_val_00045866.JPEG
clip,1,46,NaN,n01440764,n01440764,NaN,ILSVRC2012_val_00045880.JPEG
clip,1,47,NaN,n01440764,n01440764,NaN,ILSVRC2012_val_00046252.JPEG
clip,1,48,NaN,n01440764,n01440764,NaN,ILSVRC2012_val_00046499.JPEG
clip,1,49,NaN,n01440764,n01440764,NaN,ILSVRC2012_val_00048204.JPEG
clip,1,50,NaN,n01440764,n01440764,NaN,ILSVRC2012_val_00048969.JPEG
clip,1,51,NaN,n01443537,n01443537,NaN,ILSVRC2012_val_00000236.JPEG
clip,1,52,NaN,n01443537,n01443537,NaN,ILSVRC2012_val_00000262.JPEG
clip,1,53,NaN,n01443537,n01443537,NaN,ILSVRC2012_val_00000307.JPEG
clip,1,54,NaN,n01443537,n01443537,NaN,ILSVRC2012_val_00000994.JPEG
clip,1,55,NaN,n01443537,n01443537,NaN,ILSVRC2012_val_00002241.JPEG
clip,1,56,NaN,n01443537,n01443537,NaN,ILSVRC2012_val_00002848.JPEG
clip,1,57,NaN,n01443537,n01443537,NaN,ILSVRC2012_val_00003150.JPEG
clip,1,58,NaN,n01443537,n01443537,NaN,ILSVRC2012_val_00003735.JPEG
clip,1,59,NaN,n01443537,n01443537,NaN,ILSVRC2012_val_00004655.JPEG
clip,1,60,NaN,n01443537,n01443537,NaN,ILSVRC2012_val_00004677.JPEG
clip,1,61,NaN,n01443537,n01443537,NaN,ILSVRC2012_val_00005870.JPEG
clip,1,62,NaN,n01443537,n01443537,NaN,ILSVRC2012_val_00006007.JPEG
clip,1,63,NaN,n01443537,n01443537,NaN,ILSVRC2012_val_00006216.JPEG
clip,1,64,NaN,n01443537,n01443537,NaN,ILSVRC2012_val_00009034.JPEG
clip,1,65,NaN,n01443537,n01443537,NaN,ILSVRC2012_val_00010363.JPEG
clip,1,66,NaN,n01443537,n01443537,NaN,ILSVRC2012_val_00010509.JPEG
clip,1,67,NaN,n01443537,n01443537,NaN,ILSVRC2012_val_00011914.JPEG
clip,1,68,NaN,n01443537,n01443537,NaN,ILSVRC2012_val_00012880.JPEG
clip,1,69,NaN,n01443537,n01443537,NaN,ILSVRC2012_val_00013513.JPEG
clip,1,70,NaN,n01443537,n01443537,NaN,ILSVRC2012_val_00013623.JPEG
clip,1,71,NaN,n01443537,n01443537,NaN,ILSVRC2012_val_00016962.JPEG
clip,1,72,NaN,n01443537,n01443537,NaN,ILSVRC2012_val_00018075.JPEG
clip,1,73,NaN,n01443537,n01443537,NaN,ILSVRC2012_val_00019459.JPEG
clip,1,74,NaN,n01443537,n01443537,NaN,ILSVRC2012_val_00020436.JPEG
clip,1,75,NaN,n01443537,n01443537,NaN,ILSVRC2012_val_00020785.JPEG
clip,1,76,NaN,n01443537,n01443537,NaN,ILSVRC2012_val_00020822.JPEG
clip,1,77,NaN,n01443537,n01443537,NaN,ILSVRC2012_val_00021905.JPEG
clip,1,78,NaN,n01443537,n01443537,NaN,ILSVRC2012_val_00022138.JPEG
clip,1,79,NaN,n01443537,n01443537,NaN,ILSVRC2012_val_00023869.JPEG
clip,1,80,NaN,n01443537,n01443537,NaN,ILSVRC2012_val_00028713.JPEG
clip,1,81,NaN,n01443537,n01443537,NaN,ILSVRC2012_val_00030060.JPEG
clip,1,82,NaN,n01443537,n01443537,NaN,ILSVRC2012_val_00030217.JPEG
clip,1,83,NaN,n01443537,n01443537,NaN,ILSVRC2012_val_00031138.JPEG
clip,1,84,NaN,n01443537,n01443537,NaN,ILSVRC2012_val_00032235.JPEG
clip,1,85,NaN,n01443537,n01443537,NaN,ILSVRC2012_val_00032258.JPEG
clip,1,86,NaN,n01443537,n01443537,NaN,ILSVRC2012_val_00032675.JPEG
clip,1,87,NaN,n01443537,n01443537,NaN,ILSVRC2012_val_00034386.JPEG
clip,1,88,NaN,n01443537,n01443537,NaN,ILSVRC2012_val_00037846.JPEG
clip,1,89,NaN,n02607072,n01443537,NaN,ILSVRC2012_val_00038057.JPEG
clip,1,90,NaN,n01443537,n01443537,NaN,ILSVRC2012_val_00044095.JPEG
clip,1,91,NaN,n01443537,n01443537,NaN,ILSVRC2012_val_00045761.JPEG
clip,1,92,NaN,n01440764,n01443537,NaN,ILSVRC2012_val_00046915.JPEG
clip,1,93,NaN,n01443537,n01443537,NaN,ILSVRC2012_val_00046969.JPEG
clip,1,94,NaN,n01443537,n01443537,NaN,ILSVRC2012_val_00047396.JPEG
clip,1,95,NaN,n01443537,n01443537,NaN,ILSVRC2012_val_00047561.JPEG
clip,1,96,NaN,n01443537,n01443537,NaN,ILSVRC2012_val_00048840.JPEG
clip,1,97,NaN,n01443537,n01443537,NaN,ILSVRC2012_val_00048864.JPEG
clip,1,98,NaN,n01443537,n01443537,NaN,ILSVRC2012_val_00049585.JPEG
clip,1,99,NaN,n01443537,n01443537,NaN,ILSVRC2012_val_00049617.JPEG
clip,1,100,NaN,n01443537,n01443537,NaN,ILSVRC2012_val_00049712.JPEG
clip,1,101,NaN,n01484850,n01484850,NaN,ILSVRC2012_val_00002338.JPEG
clip,1,102,NaN,n01484850,n01484850,NaN,ILSVRC2012_val_00002752.JPEG
clip,1,103,NaN,n01484850,n01484850,NaN,ILSVRC2012_val_00004311.JPEG
clip,1,104,NaN,n01484850,n01484850,NaN,ILSVRC2012_val_00004329.JPEG
clip,1,105,NaN,n01484850,n01484850,NaN,ILSVRC2012_val_00006491.JPEG
clip,1,106,NaN,n01494475,n01484850,NaN,ILSVRC2012_val_00008848.JPEG
clip,1,107,NaN,n01484850,n01484850,NaN,ILSVRC2012_val_00014467.JPEG
clip,1,108,NaN,n01484850,n01484850,NaN,ILSVRC2012_val_00015157.JPEG
clip,1,109,NaN,n01484850,n01484850,NaN,ILSVRC2012_val_00015220.JPEG
clip,1,110,NaN,n01484850,n01484850,NaN,ILSVRC2012_val_00016168.JPEG
clip,1,111,NaN,n01484850,n01484850,NaN,ILSVRC2012_val_00016859.JPEG
clip,1,112,NaN,n01494475,n01484850,NaN,ILSVRC2012_val_00016988.JPEG
clip,1,113,NaN,n01484850,n01484850,NaN,ILSVRC2012_val_00017105.JPEG
clip,1,114,NaN,n01484850,n01484850,NaN,ILSVRC2012_val_00017194.JPEG
clip,1,115,NaN,n01484850,n01484850,NaN,ILSVRC2012_val_00019409.JPEG
clip,1,116,NaN,n01484850,n01484850,NaN,ILSVRC2012_val_00019435.JPEG
clip,1,117,NaN,n01484850,n01484850,NaN,ILSVRC2012_val_00020011.JPEG
clip,1,118,NaN,n01494475,n01484850,NaN,ILSVRC2012_val_00023185.JPEG
clip,1,119,NaN,n01484850,n01484850,NaN,ILSVRC2012_val_00024940.JPEG
clip,1,120,NaN,n01484850,n01484850,NaN,ILSVRC2012_val_00025900.JPEG
clip,1,121,NaN,n01484850,n01484850,NaN,ILSVRC2012_val_00027063.JPEG
clip,1,122,NaN,n01484850,n01484850,NaN,ILSVRC2012_val_00027419.JPEG
clip,1,123,NaN,n01484850,n01484850,NaN,ILSVRC2012_val_00027514.JPEG
clip,1,124,NaN,n01484850,n01484850,NaN,ILSVRC2012_val_00028028.JPEG
clip,1,125,NaN,n01484850,n01484850,NaN,ILSVRC2012_val_00029481.JPEG
clip,1,126,NaN,n01484850,n01484850,NaN,ILSVRC2012_val_00030127.JPEG
clip,1,127,NaN,n01484850,n01484850,NaN,ILSVRC2012_val_00031466.JPEG
clip,1,128,NaN,n02066245,n01484850,NaN,ILSVRC2012_val_00031720.JPEG
clip,1,129,NaN,n01484850,n01484850,NaN,ILSVRC2012_val_00031808.JPEG
clip,1,130,NaN,n01484850,n01484850,NaN,ILSVRC2012_val_00032288.JPEG
clip,1,131,NaN,n01484850,n01484850,NaN,ILSVRC2012_val_00032417.JPEG
clip,1,132,NaN,n01484850,n01484850,NaN,ILSVRC2012_val_00034950.JPEG
clip,1,133,NaN,n01484850,n01484850,NaN,ILSVRC2012_val_00035223.JPEG
clip,1,134,NaN,n01491361,n01484850,NaN,ILSVRC2012_val_00035774.JPEG
clip,1,135,NaN,n01484850,n01484850,NaN,ILSVRC2012_val_00036737.JPEG
clip,1,136,NaN,n01484850,n01484850,NaN,ILSVRC2012_val_00037050.JPEG
clip,1,137,NaN,n01484850,n01484850,NaN,ILSVRC2012_val_00037135.JPEG
clip,1,138,NaN,n01494475,n01484850,NaN,ILSVRC2012_val_00037488.JPEG
clip,1,139,NaN,n01484850,n01484850,NaN,ILSVRC2012_val_00037998.JPEG
clip,1,140,NaN,n01484850,n01484850,NaN,ILSVRC2012_val_00039304.JPEG
clip,1,141,NaN,n01484850,n01484850,NaN,ILSVRC2012_val_00039445.JPEG
clip,1,142,NaN,n01484850,n01484850,NaN,ILSVRC2012_val_00039534.JPEG
clip,1,143,NaN,n01484850,n01484850,NaN,ILSVRC2012_val_00039865.JPEG
clip,1,144,NaN,n01491361,n01484850,NaN,ILSVRC2012_val_00040098.JPEG
clip,1,145,NaN,n01484850,n01484850,NaN,ILSVRC2012_val_00040710.JPEG
clip,1,146,NaN,n01494475,n01484850,NaN,ILSVRC2012_val_00042345.JPEG
clip,1,147,NaN,n01494475,n01484850,NaN,ILSVRC2012_val_00044052.JPEG
clip,1,148,NaN,n01491361,n01484850,NaN,ILSVRC2012_val_00044896.JPEG
clip,1,149,NaN,n01491361,n01484850,NaN,ILSVRC2012_val_00045730.JPEG
clip,1,150,NaN,n01484850,n01484850,NaN,ILSVRC2012_val_00046171.JPEG
clip,1,151,NaN,n01484850,n01491361,NaN,ILSVRC2012_val_00002922.JPEG
clip,1,152,NaN,n01484850,n01491361,NaN,ILSVRC2012_val_00002969.JPEG
clip,1,153,NaN,n01491361,n01491361,NaN,ILSVRC2012_val_00003183.JPEG
clip,1,154,NaN,n01491361,n01491361,NaN,ILSVRC2012_val_00003204.JPEG
clip,1,155,NaN,n01491361,n01491361,NaN,ILSVRC2012_val_00007743.JPEG
clip,1,156,NaN,n01491361,n01491361,NaN,ILSVRC2012_val_00007875.JPEG
clip,1,157,NaN,n01491361,n01491361,NaN,ILSVRC2012_val_00008024.JPEG
clip,1,158,NaN,n01491361,n01491361,NaN,ILSVRC2012_val_00008108.JPEG
clip,1,159,NaN,n01491361,n01491361,NaN,ILSVRC2012_val_00010074.JPEG
clip,1,160,NaN,n01494475,n01491361,NaN,ILSVRC2012_val_00012328.JPEG
clip,1,161,NaN,n01491361,n01491361,NaN,ILSVRC2012_val_00013484.JPEG
clip,1,162,NaN,n01484850,n01491361,NaN,ILSVRC2012_val_00013628.JPEG
clip,1,163,NaN,n01494475,n01491361,NaN,ILSVRC2012_val_00015631.JPEG
clip,1,164,NaN,n01491361,n01491361,NaN,ILSVRC2012_val_00018466.JPEG
clip,1,165,NaN,n02066245,n01491361,NaN,ILSVRC2012_val_00019424.JPEG
clip,1,166,NaN,n01494475,n01491361,NaN,ILSVRC2012_val_00023443.JPEG
clip,1,167,NaN,n02655020,n01491361,NaN,ILSVRC2012_val_00023935.JPEG
clip,1,168,NaN,n01491361,n01491361,NaN,ILSVRC2012_val_00024854.JPEG
clip,1,169,NaN,n01491361,n01491361,NaN,ILSVRC2012_val_00024895.JPEG
clip,1,170,NaN,n01494475,n01491361,NaN,ILSVRC2012_val_00025133.JPEG
clip,1,171,NaN,n01484850,n01491361,NaN,ILSVRC2012_val_00025137.JPEG
clip,1,172,NaN,n01491361,n01491361,NaN,ILSVRC2012_val_00025640.JPEG
clip,1,173,NaN,n01491361,n01491361,NaN,ILSVRC2012_val_00025686.JPEG
clip,1,174,NaN,n01491361,n01491361,NaN,ILSVRC2012_val_00025969.JPEG
clip,1,175,NaN,n01491361,n01491361,NaN,ILSVRC2012_val_00026001.JPEG
clip,1,176,NaN,n02066245,n01491361,NaN,ILSVRC2012_val_00028564.JPEG
clip,1,177,NaN,n01491361,n01491361,NaN,ILSVRC2012_val_00029300.JPEG
clip,1,178,NaN,n01494475,n01491361,NaN,ILSVRC2012_val_00029568.JPEG
clip,1,179,NaN,n01491361,n01491361,NaN,ILSVRC2012_val_00030156.JPEG
clip,1,180,NaN,n01491361,n01491361,NaN,ILSVRC2012_val_00030658.JPEG
clip,1,181,NaN,n01491361,n01491361,NaN,ILSVRC2012_val_00030926.JPEG
clip,1,182,NaN,n01491361,n01491361,NaN,ILSVRC2012_val_00031071.JPEG
clip,1,183,NaN,n01491361,n01491361,NaN,ILSVRC2012_val_00031243.JPEG
clip,1,184,NaN,n01491361,n01491361,NaN,ILSVRC2012_val_00031568.JPEG
clip,1,185,NaN,n01491361,n01491361,NaN,ILSVRC2012_val_00032130.JPEG
clip,1,186,NaN,n01491361,n01491361,NaN,ILSVRC2012_val_00034038.JPEG
clip,1,187,NaN,n01494475,n01491361,NaN,ILSVRC2012_val_00034413.JPEG
clip,1,188,NaN,n01494475,n01491361,NaN,ILSVRC2012_val_00035405.JPEG
clip,1,189,NaN,n01491361,n01491361,NaN,ILSVRC2012_val_00035495.JPEG
clip,1,190,NaN,n01491361,n01491361,NaN,ILSVRC2012_val_00036420.JPEG
clip,1,191,NaN,n01484850,n01491361,NaN,ILSVRC2012_val_00037516.JPEG
clip,1,192,NaN,n01491361,n01491361,NaN,ILSVRC2012_val_00037581.JPEG
clip,1,193,NaN,n01491361,n01491361,NaN,ILSVRC2012_val_00037780.JPEG
clip,1,194,NaN,n01491361,n01491361,NaN,ILSVRC2012_val_00037915.JPEG
clip,1,195,NaN,n01491361,n01491361,NaN,ILSVRC2012_val_00040388.JPEG
clip,1,196,NaN,n01491361,n01491361,NaN,ILSVRC2012_val_00041635.JPEG
clip,1,197,NaN,n01491361,n01491361,NaN,ILSVRC2012_val_00046159.JPEG
clip,1,198,NaN,n02074367,n01491361,NaN,ILSVRC2012_val_00047326.JPEG
clip,1,199,NaN,n01491361,n01491361,NaN,ILSVRC2012_val_00048890.JPEG
clip,1,200,NaN,n01491361,n01491361,NaN,ILSVRC2012_val_00049000.JPEG
clip,1,201,NaN,n01494475,n01494475,NaN,ILSVRC2012_val_00001676.JPEG
clip,1,202,NaN,n01494475,n01494475,NaN,ILSVRC2012_val_00003558.JPEG
clip,1,203,NaN,n01494475,n01494475,NaN,ILSVRC2012_val_00004417.JPEG
clip,1,204,NaN,n01494475,n01494475,NaN,ILSVRC2012_val_00005339.JPEG
clip,1,205,NaN,n01494475,n01494475,NaN,ILSVRC2012_val_00007405.JPEG
clip,1,206,NaN,n01494475,n01494475,NaN,ILSVRC2012_val_00009460.JPEG
clip,1,207,NaN,n01494475,n01494475,NaN,ILSVRC2012_val_00009978.JPEG
clip,1,208,NaN,n01494475,n01494475,NaN,ILSVRC2012_val_00011388.JPEG
clip,1,209,NaN,n01494475,n01494475,NaN,ILSVRC2012_val_00012546.JPEG
clip,1,210,NaN,n01494475,n01494475,NaN,ILSVRC2012_val_00012879.JPEG
clip,1,211,NaN,n02640242,n01494475,NaN,ILSVRC2012_val_00013847.JPEG
clip,1,212,NaN,n01494475,n01494475,NaN,ILSVRC2012_val_00015139.JPEG
clip,1,213,NaN,n01494475,n01494475,NaN,ILSVRC2012_val_00015545.JPEG
clip,1,214,NaN,n01494475,n01494475,NaN,ILSVRC2012_val_00016259.JPEG
clip,1,215,NaN,n01494475,n01494475,NaN,ILSVRC2012_val_00016347.JPEG
clip,1,216,NaN,n01494475,n01494475,NaN,ILSVRC2012_val_00016395.JPEG
clip,1,217,NaN,n01494475,n01494475,NaN,ILSVRC2012_val_00016834.JPEG
clip,1,218,NaN,n01494475,n01494475,NaN,ILSVRC2012_val_00018943.JPEG
clip,1,219,NaN,n01494475,n01494475,NaN,ILSVRC2012_val_00018948.JPEG
clip,1,220,NaN,n01494475,n01494475,NaN,ILSVRC2012_val_00020418.JPEG
clip,1,221,NaN,n01494475,n01494475,NaN,ILSVRC2012_val_00021325.JPEG
clip,1,222,NaN,n01494475,n01494475,NaN,ILSVRC2012_val_00022552.JPEG
clip,1,223,NaN,n01491361,n01494475,NaN,ILSVRC2012_val_00023074.JPEG
clip,1,224,NaN,n01494475,n01494475,NaN,ILSVRC2012_val_00023986.JPEG
clip,1,225,NaN,n01494475,n01494475,NaN,ILSVRC2012_val_00024015.JPEG
clip,1,226,NaN,n01484850,n01494475,NaN,ILSVRC2012_val_00025627.JPEG
clip,1,227,NaN,n01494475,n01494475,NaN,ILSVRC2012_val_00026490.JPEG
clip,1,228,NaN,n01494475,n01494475,NaN,ILSVRC2012_val_00027113.JPEG
clip,1,229,NaN,n01494475,n01494475,NaN,ILSVRC2012_val_00027160.JPEG
clip,1,230,NaN,n01494475,n01494475,NaN,ILSVRC2012_val_00027283.JPEG
clip,1,231,NaN,n01494475,n01494475,NaN,ILSVRC2012_val_00028084.JPEG
clip,1,232,NaN,n01494475,n01494475,NaN,ILSVRC2012_val_00029886.JPEG
clip,1,233,NaN,n01491361,n01494475,NaN,ILSVRC2012_val_00031169.JPEG
clip,1,234,NaN,n01494475,n01494475,NaN,ILSVRC2012_val_00031424.JPEG
clip,1,235,NaN,n01498041,n01494475,NaN,ILSVRC2012_val_00034115.JPEG
clip,1,236,NaN,n01494475,n01494475,NaN,ILSVRC2012_val_00034178.JPEG
clip,1,237,NaN,n01494475,n01494475,NaN,ILSVRC2012_val_00035367.JPEG
clip,1,238,NaN,n01484850,n01494475,NaN,ILSVRC2012_val_00036479.JPEG
clip,1,239,NaN,n01494475,n01494475,NaN,ILSVRC2012_val_00037705.JPEG
clip,1,240,NaN,n01494475,n01494475,NaN,ILSVRC2012_val_00039588.JPEG
clip,1,241,NaN,n02641379,n01494475,NaN,ILSVRC2012_val_00040843.JPEG
clip,1,242,NaN,n01494475,n01494475,NaN,ILSVRC2012_val_00041400.JPEG
clip,1,243,NaN,n01494475,n01494475,NaN,ILSVRC2012_val_00044788.JPEG
clip,1,244,NaN,n01494475,n01494475,NaN,ILSVRC2012_val_00045133.JPEG
clip,1,245,NaN,n01494475,n01494475,NaN,ILSVRC2012_val_00045580.JPEG
clip,1,246,NaN,n01494475,n01494475,NaN,ILSVRC2012_val_00045925.JPEG
clip,1,247,NaN,n01494475,n01494475,NaN,ILSVRC2012_val_00047320.JPEG
clip,1,248,NaN,n01494475,n01494475,NaN,ILSVRC2012_val_00047431.JPEG
clip,1,249,NaN,n01494475,n01494475,NaN,ILSVRC2012_val_00048576.JPEG
clip,1,250,NaN,n01494475,n01494475,NaN,ILSVRC2012_val_00049166.JPEG
clip,1,251,NaN,n01496331,n01496331,NaN,ILSVRC2012_val_00000921.JPEG
clip,1,252,NaN,n01950731,n01496331,NaN,ILSVRC2012_val_00002207.JPEG
clip,1,253,NaN,n01496331,n01496331,NaN,ILSVRC2012_val_00004698.JPEG
clip,1,254,NaN,n01496331,n01496331,NaN,ILSVRC2012_val_00004969.JPEG
clip,1,255,NaN,n01496331,n01496331,NaN,ILSVRC2012_val_00005432.JPEG
clip,1,256,NaN,n01496331,n01496331,NaN,ILSVRC2012_val_00006251.JPEG
clip,1,257,NaN,n01496331,n01496331,NaN,ILSVRC2012_val_00006554.JPEG
clip,1,258,NaN,n01498041,n01496331,NaN,ILSVRC2012_val_00007569.JPEG
clip,1,259,NaN,n01665541,n01496331,NaN,ILSVRC2012_val_00008640.JPEG
clip,1,260,NaN,n01496331,n01496331,NaN,ILSVRC2012_val_00008749.JPEG
clip,1,261,NaN,n01496331,n01496331,NaN,ILSVRC2012_val_00008963.JPEG
clip,1,262,NaN,n01498041,n01496331,NaN,ILSVRC2012_val_00009208.JPEG
clip,1,263,NaN,n02927161,n01496331,NaN,ILSVRC2012_val_00009237.JPEG
clip,1,264,NaN,n01496331,n01496331,NaN,ILSVRC2012_val_00009420.JPEG
clip,1,265,NaN,n01496331,n01496331,NaN,ILSVRC2012_val_00009518.JPEG
clip,1,266,NaN,n01924916,n01496331,NaN,ILSVRC2012_val_00011782.JPEG
clip,1,267,NaN,n01496331,n01496331,NaN,ILSVRC2012_val_00014741.JPEG
clip,1,268,NaN,n01496331,n01496331,NaN,ILSVRC2012_val_00015549.JPEG
clip,1,269,NaN,n01498041,n01496331,NaN,ILSVRC2012_val_00015555.JPEG
clip,1,270,NaN,n01496331,n01496331,NaN,ILSVRC2012_val_00015732.JPEG
clip,1,271,NaN,n01498041,n01496331,NaN,ILSVRC2012_val_00016331.JPEG
clip,1,272,NaN,n01496331,n01496331,NaN,ILSVRC2012_val_00017196.JPEG
clip,1,273,NaN,n01498041,n01496331,NaN,ILSVRC2012_val_00017440.JPEG
clip,1,274,NaN,n02066245,n01496331,NaN,ILSVRC2012_val_00019531.JPEG
clip,1,275,NaN,n01496331,n01496331,NaN,ILSVRC2012_val_00019988.JPEG
clip,1,276,NaN,n01496331,n01496331,NaN,ILSVRC2012_val_00021461.JPEG
clip,1,277,NaN,n01496331,n01496331,NaN,ILSVRC2012_val_00022387.JPEG
clip,1,278,NaN,n02321529,n01496331,NaN,ILSVRC2012_val_00022865.JPEG
clip,1,279,NaN,n02640242,n01496331,NaN,ILSVRC2012_val_00023916.JPEG
clip,1,280,NaN,n01498041,n01496331,NaN,ILSVRC2012_val_00027301.JPEG
clip,1,281,NaN,n01496331,n01496331,NaN,ILSVRC2012_val_00027633.JPEG
clip,1,282,NaN,n01924916,n01496331,NaN,ILSVRC2012_val_00028161.JPEG
clip,1,283,NaN,n01496331,n01496331,NaN,ILSVRC2012_val_00028422.JPEG
clip,1,284,NaN,n01496331,n01496331,NaN,ILSVRC2012_val_00030321.JPEG
clip,1,285,NaN,n01496331,n01496331,NaN,ILSVRC2012_val_00030367.JPEG
clip,1,286,NaN,n01496331,n01496331,NaN,ILSVRC2012_val_00033070.JPEG
clip,1,287,NaN,n01498041,n01496331,NaN,ILSVRC2012_val_00033318.JPEG
clip,1,288,NaN,n01496331,n01496331,NaN,ILSVRC2012_val_00034837.JPEG
clip,1,289,NaN,n01496331,n01496331,NaN,ILSVRC2012_val_00034971.JPEG
clip,1,290,NaN,n01496331,n01496331,NaN,ILSVRC2012_val_00037260.JPEG
clip,1,291,NaN,n07590611,n01496331,NaN,ILSVRC2012_val_00040567.JPEG
clip,1,292,NaN,n01950731,n01496331,NaN,ILSVRC2012_val_00041248.JPEG
clip,1,293,NaN,n01496331,n01496331,NaN,ILSVRC2012_val_00042245.JPEG
clip,1,294,NaN,n01496331,n01496331,NaN,ILSVRC2012_val_00042751.JPEG
clip,1,295,NaN,n02606052,n01496331,NaN,ILSVRC2012_val_00044657.JPEG
clip,1,296,NaN,n01496331,n01496331,NaN,ILSVRC2012_val_00045502.JPEG
clip,1,297,NaN,n01496331,n01496331,NaN,ILSVRC2012_val_00045936.JPEG
clip,1,298,NaN,n01496331,n01496331,NaN,ILSVRC2012_val_00047080.JPEG
clip,1,299,NaN,n01498041,n01496331,NaN,ILSVRC2012_val_00047589.JPEG
clip,1,300,NaN,n01496331,n01496331,NaN,ILSVRC2012_val_00048119.JPEG
clip,1,301,NaN,n01498041,n01498041,NaN,ILSVRC2012_val_00001935.JPEG
clip,1,302,NaN,n01496331,n01498041,NaN,ILSVRC2012_val_00002284.JPEG
clip,1,303,NaN,n01496331,n01498041,NaN,ILSVRC2012_val_00002480.JPEG
clip,1,304,NaN,n01496331,n01498041,NaN,ILSVRC2012_val_00003518.JPEG
clip,1,305,NaN,n01498041,n01498041,NaN,ILSVRC2012_val_00004873.JPEG
clip,1,306,NaN,n04493381,n01498041,NaN,ILSVRC2012_val_00005642.JPEG
clip,1,307,NaN,n01498041,n01498041,NaN,ILSVRC2012_val_00006402.JPEG
clip,1,308,NaN,n01496331,n01498041,NaN,ILSVRC2012_val_00008952.JPEG
clip,1,309,NaN,n01496331,n01498041,NaN,ILSVRC2012_val_00009734.JPEG
clip,1,310,NaN,n04049303,n01498041,NaN,ILSVRC2012_val_00012259.JPEG
clip,1,311,NaN,n01496331,n01498041,NaN,ILSVRC2012_val_00013655.JPEG
clip,1,312,NaN,n01496331,n01498041,NaN,ILSVRC2012_val_00014771.JPEG
clip,1,313,NaN,n01498041,n01498041,NaN,ILSVRC2012_val_00015045.JPEG
clip,1,314,NaN,n01496331,n01498041,NaN,ILSVRC2012_val_00015373.JPEG
clip,1,315,NaN,n01496331,n01498041,NaN,ILSVRC2012_val_00021793.JPEG
clip,1,316,NaN,n02074367,n01498041,NaN,ILSVRC2012_val_00023239.JPEG
clip,1,317,NaN,n01498041,n01498041,NaN,ILSVRC2012_val_00024204.JPEG
clip,1,318,NaN,n01498041,n01498041,NaN,ILSVRC2012_val_00024719.JPEG
clip,1,319,NaN,n01498041,n01498041,NaN,ILSVRC2012_val_00025051.JPEG
clip,1,320,NaN,n01498041,n01498041,NaN,ILSVRC2012_val_00026908.JPEG
clip,1,321,NaN,n01498041,n01498041,NaN,ILSVRC2012_val_00027005.JPEG
clip,1,322,NaN,n01496331,n01498041,NaN,ILSVRC2012_val_00027415.JPEG
clip,1,323,NaN,n01498041,n01498041,NaN,ILSVRC2012_val_00028450.JPEG
clip,1,324,NaN,n01498041,n01498041,NaN,ILSVRC2012_val_00029169.JPEG
clip,1,325,NaN,n04606251,n01498041,NaN,ILSVRC2012_val_00030380.JPEG
clip,1,326,NaN,n01498041,n01498041,NaN,ILSVRC2012_val_00030470.JPEG
clip,1,327,NaN,n01496331,n01498041,NaN,ILSVRC2012_val_00032394.JPEG
clip,1,328,NaN,n01496331,n01498041,NaN,ILSVRC2012_val_00032441.JPEG
clip,1,329,NaN,n01496331,n01498041,NaN,ILSVRC2012_val_00033337.JPEG
clip,1,330,NaN,n01496331,n01498041,NaN,ILSVRC2012_val_00033942.JPEG
clip,1,331,NaN,n01496331,n01498041,NaN,ILSVRC2012_val_00036118.JPEG
clip,1,332,NaN,n01496331,n01498041,NaN,ILSVRC2012_val_00036157.JPEG
clip,1,333,NaN,n01498041,n01498041,NaN,ILSVRC2012_val_00037740.JPEG
clip,1,334,NaN,n01494475,n01498041,NaN,ILSVRC2012_val_00037753.JPEG
clip,1,335,NaN,n01496331,n01498041,NaN,ILSVRC2012_val_00037798.JPEG
clip,1,336,NaN,n01498041,n01498041,NaN,ILSVRC2012_val_00038215.JPEG
clip,1,337,NaN,n01496331,n01498041,NaN,ILSVRC2012_val_00038935.JPEG
clip,1,338,NaN,n01496331,n01498041,NaN,ILSVRC2012_val_00039308.JPEG
clip,1,339,NaN,n01496331,n01498041,NaN,ILSVRC2012_val_00039525.JPEG
clip,1,340,NaN,n01498041,n01498041,NaN,ILSVRC2012_val_00040342.JPEG
clip,1,341,NaN,n01496331,n01498041,NaN,ILSVRC2012_val_00041872.JPEG
clip,1,342,NaN,n02074367,n01498041,NaN,ILSVRC2012_val_00042175.JPEG
clip,1,343,NaN,n01496331,n01498041,NaN,ILSVRC2012_val_00042385.JPEG
clip,1,344,NaN,n02074367,n01498041,NaN,ILSVRC2012_val_00042534.JPEG
clip,1,345,NaN,n01498041,n01498041,NaN,ILSVRC2012_val_00042547.JPEG
clip,1,346,NaN,n09428293,n01498041,NaN,ILSVRC2012_val_00043229.JPEG
clip,1,347,NaN,n01496331,n01498041,NaN,ILSVRC2012_val_00043323.JPEG
clip,1,348,NaN,n01498041,n01498041,NaN,ILSVRC2012_val_00043702.JPEG
clip,1,349,NaN,n01498041,n01498041,NaN,ILSVRC2012_val_00046497.JPEG
clip,1,350,NaN,n01496331,n01498041,NaN,ILSVRC2012_val_00049253.JPEG
clip,1,351,NaN,n01514859,n01514668,NaN,ILSVRC2012_val_00000329.JPEG
clip,1,352,NaN,n01514859,n01514668,NaN,ILSVRC2012_val_00000911.JPEG
clip,1,353,NaN,n01514668,n01514668,NaN,ILSVRC2012_val_00003605.JPEG
clip,1,354,NaN,n01514668,n01514668,NaN,ILSVRC2012_val_00003606.JPEG
clip,1,355,NaN,n01514668,n01514668,NaN,ILSVRC2012_val_00003936.JPEG
clip,1,356,NaN,n01514668,n01514668,NaN,ILSVRC2012_val_00004306.JPEG
clip,1,357,NaN,n01806143,n01514668,NaN,ILSVRC2012_val_00004463.JPEG
clip,1,358,NaN,n01514668,n01514668,NaN,ILSVRC2012_val_00004550.JPEG
clip,1,359,NaN,n01514668,n01514668,NaN,ILSVRC2012_val_00005492.JPEG
clip,1,360,NaN,n01514859,n01514668,NaN,ILSVRC2012_val_00005505.JPEG
clip,1,361,NaN,n01514668,n01514668,NaN,ILSVRC2012_val_00009219.JPEG
clip,1,362,NaN,n01514668,n01514668,NaN,ILSVRC2012_val_00009510.JPEG
clip,1,363,NaN,n02483708,n01514668,NaN,ILSVRC2012_val_00009663.JPEG
clip,1,364,NaN,n01514859,n01514668,NaN,ILSVRC2012_val_00010208.JPEG
clip,1,365,NaN,n01514668,n01514668,NaN,ILSVRC2012_val_00011403.JPEG
clip,1,366,NaN,n01807496,n01514668,NaN,ILSVRC2012_val_00012484.JPEG
clip,1,367,NaN,n01514668,n01514668,NaN,ILSVRC2012_val_00014090.JPEG
clip,1,368,NaN,n01514668,n01514668,NaN,ILSVRC2012_val_00015242.JPEG
clip,1,369,NaN,n01514668,n01514668,NaN,ILSVRC2012_val_00016052.JPEG
clip,1,370,NaN,n01514668,n01514668,NaN,ILSVRC2012_val_00016781.JPEG
clip,1,371,NaN,n01514668,n01514668,NaN,ILSVRC2012_val_00019101.JPEG
clip,1,372,NaN,n01514859,n01514668,NaN,ILSVRC2012_val_00019423.JPEG
clip,1,373,NaN,n01514668,n01514668,NaN,ILSVRC2012_val_00019721.JPEG
clip,1,374,NaN,n01514668,n01514668,NaN,ILSVRC2012_val_00020106.JPEG
clip,1,375,NaN,n01514668,n01514668,NaN,ILSVRC2012_val_00020451.JPEG
clip,1,376,NaN,n01514668,n01514668,NaN,ILSVRC2012_val_00022025.JPEG
clip,1,377,NaN,n01514859,n01514668,NaN,ILSVRC2012_val_00022248.JPEG
clip,1,378,NaN,n01514668,n01514668,NaN,ILSVRC2012_val_00023551.JPEG
clip,1,379,NaN,n01514668,n01514668,NaN,ILSVRC2012_val_00024957.JPEG
clip,1,380,NaN,n01514668,n01514668,NaN,ILSVRC2012_val_00025431.JPEG
clip,1,381,NaN,n01514668,n01514668,NaN,ILSVRC2012_val_00027207.JPEG
clip,1,382,NaN,n01514668,n01514668,NaN,ILSVRC2012_val_00027351.JPEG
clip,1,383,NaN,n01514668,n01514668,NaN,ILSVRC2012_val_00028221.JPEG
clip,1,384,NaN,n01807496,n01514668,NaN,ILSVRC2012_val_00028712.JPEG
clip,1,385,NaN,n03047690,n01514668,NaN,ILSVRC2012_val_00029921.JPEG
clip,1,386,NaN,n01514668,n01514668,NaN,ILSVRC2012_val_00035104.JPEG
clip,1,387,NaN,n01514668,n01514668,NaN,ILSVRC2012_val_00035151.JPEG
clip,1,388,NaN,n01514668,n01514668,NaN,ILSVRC2012_val_00036368.JPEG
clip,1,389,NaN,n01514668,n01514668,NaN,ILSVRC2012_val_00037070.JPEG
clip,1,390,NaN,n01514859,n01514668,NaN,ILSVRC2012_val_00037569.JPEG
clip,1,391,NaN,n01514668,n01514668,NaN,ILSVRC2012_val_00038826.JPEG
clip,1,392,NaN,n01514668,n01514668,NaN,ILSVRC2012_val_00043387.JPEG
clip,1,393,NaN,n01514668,n01514668,NaN,ILSVRC2012_val_00043751.JPEG
clip,1,394,NaN,n01514859,n01514668,NaN,ILSVRC2012_val_00045107.JPEG
clip,1,395,NaN,n01514668,n01514668,NaN,ILSVRC2012_val_00046393.JPEG
clip,1,396,NaN,n01514668,n01514668,NaN,ILSVRC2012_val_00046524.JPEG
clip,1,397,NaN,n01820546,n01514668,NaN,ILSVRC2012_val_00047137.JPEG
clip,1,398,NaN,n01514668,n01514668,NaN,ILSVRC2012_val_00047724.JPEG
clip,1,399,NaN,n01514859,n01514668,NaN,ILSVRC2012_val_00048952.JPEG
clip,1,400,NaN,n01514668,n01514668,NaN,ILSVRC2012_val_00049181.JPEG
clip,1,401,NaN,n01514859,n01514859,NaN,ILSVRC2012_val_00001114.JPEG
clip,1,402,NaN,n01514859,n01514859,NaN,ILSVRC2012_val_00001368.JPEG
clip,1,403,NaN,n01514859,n01514859,NaN,ILSVRC2012_val_00001906.JPEG
clip,1,404,NaN,n01514859,n01514859,NaN,ILSVRC2012_val_00002372.JPEG
clip,1,405,NaN,n01514668,n01514859,NaN,ILSVRC2012_val_00004183.JPEG
clip,1,406,NaN,n01514859,n01514859,NaN,ILSVRC2012_val_00004315.JPEG
clip,1,407,NaN,n01514859,n01514859,NaN,ILSVRC2012_val_00005535.JPEG
clip,1,408,NaN,n01514859,n01514859,NaN,ILSVRC2012_val_00006195.JPEG
clip,1,409,NaN,n01514859,n01514859,NaN,ILSVRC2012_val_00007530.JPEG
clip,1,410,NaN,n01514668,n01514859,NaN,ILSVRC2012_val_00007729.JPEG
clip,1,411,NaN,n01514859,n01514859,NaN,ILSVRC2012_val_00008125.JPEG
clip,1,412,NaN,n01514859,n01514859,NaN,ILSVRC2012_val_00009615.JPEG
clip,1,413,NaN,n01514859,n01514859,NaN,ILSVRC2012_val_00010162.JPEG
clip,1,414,NaN,n01514859,n01514859,NaN,ILSVRC2012_val_00011171.JPEG
clip,1,415,NaN,n01514859,n01514859,NaN,ILSVRC2012_val_00012528.JPEG
clip,1,416,NaN,n01514859,n01514859,NaN,ILSVRC2012_val_00014180.JPEG
clip,1,417,NaN,n01514859,n01514859,NaN,ILSVRC2012_val_00014879.JPEG
clip,1,418,NaN,n01514859,n01514859,NaN,ILSVRC2012_val_00014917.JPEG
clip,1,419,NaN,n02107908,n01514859,NaN,ILSVRC2012_val_00021430.JPEG
clip,1,420,NaN,n02018207,n01514859,NaN,ILSVRC2012_val_00022644.JPEG
clip,1,421,NaN,n01514668,n01514859,NaN,ILSVRC2012_val_00025324.JPEG
clip,1,422,NaN,n01514859,n01514859,NaN,ILSVRC2012_val_00026271.JPEG
clip,1,423,NaN,n01514859,n01514859,NaN,ILSVRC2012_val_00026508.JPEG
clip,1,424,NaN,n01514859,n01514859,NaN,ILSVRC2012_val_00027762.JPEG
clip,1,425,NaN,n01514859,n01514859,NaN,ILSVRC2012_val_00028107.JPEG
clip,1,426,NaN,n01514859,n01514859,NaN,ILSVRC2012_val_00029619.JPEG
clip,1,427,NaN,n01514668,n01514859,NaN,ILSVRC2012_val_00031481.JPEG
clip,1,428,NaN,n01514668,n01514859,NaN,ILSVRC2012_val_00032162.JPEG
clip,1,429,NaN,n01514668,n01514859,NaN,ILSVRC2012_val_00032169.JPEG
clip,1,430,NaN,n01514859,n01514859,NaN,ILSVRC2012_val_00032310.JPEG
clip,1,431,NaN,n01514859,n01514859,NaN,ILSVRC2012_val_00032930.JPEG
clip,1,432,NaN,n01514668,n01514859,NaN,ILSVRC2012_val_00033538.JPEG
clip,1,433,NaN,n01514859,n01514859,NaN,ILSVRC2012_val_00035141.JPEG
clip,1,434,NaN,n01514859,n01514859,NaN,ILSVRC2012_val_00037013.JPEG
clip,1,435,NaN,n01534433,n01514859,NaN,ILSVRC2012_val_00037719.JPEG
clip,1,436,NaN,n01514859,n01514859,NaN,ILSVRC2012_val_00039067.JPEG
clip,1,437,NaN,n01514859,n01514859,NaN,ILSVRC2012_val_00039943.JPEG
clip,1,438,NaN,n01514859,n01514859,NaN,ILSVRC2012_val_00040038.JPEG
clip,1,439,NaN,n01514859,n01514859,NaN,ILSVRC2012_val_00041168.JPEG
clip,1,440,NaN,n01514859,n01514859,NaN,ILSVRC2012_val_00041334.JPEG
clip,1,441,NaN,n01514668,n01514859,NaN,ILSVRC2012_val_00041852.JPEG
clip,1,442,NaN,n01514668,n01514859,NaN,ILSVRC2012_val_00042135.JPEG
clip,1,443,NaN,n01514859,n01514859,NaN,ILSVRC2012_val_00042568.JPEG
clip,1,444,NaN,n01514859,n01514859,NaN,ILSVRC2012_val_00044276.JPEG
clip,1,445,NaN,n01514859,n01514859,NaN,ILSVRC2012_val_00045547.JPEG
clip,1,446,NaN,n01514859,n01514859,NaN,ILSVRC2012_val_00045551.JPEG
clip,1,447,NaN,n01514859,n01514859,NaN,ILSVRC2012_val_00047753.JPEG
clip,1,448,NaN,n01514859,n01514859,NaN,ILSVRC2012_val_00048049.JPEG
clip,1,449,NaN,n01514859,n01514859,NaN,ILSVRC2012_val_00048242.JPEG
clip,1,450,NaN,n01514859,n01514859,NaN,ILSVRC2012_val_00049833.JPEG
clip,1,451,NaN,n01518878,n01518878,NaN,ILSVRC2012_val_00001031.JPEG
clip,1,452,NaN,n01518878,n01518878,NaN,ILSVRC2012_val_00001398.JPEG
clip,1,453,NaN,n01518878,n01518878,NaN,ILSVRC2012_val_00003297.JPEG
clip,1,454,NaN,n01518878,n01518878,NaN,ILSVRC2012_val_00004756.JPEG
clip,1,455,NaN,n01518878,n01518878,NaN,ILSVRC2012_val_00004983.JPEG
clip,1,456,NaN,n01518878,n01518878,NaN,ILSVRC2012_val_00005427.JPEG
clip,1,457,NaN,n01518878,n01518878,NaN,ILSVRC2012_val_00008176.JPEG
clip,1,458,NaN,n01518878,n01518878,NaN,ILSVRC2012_val_00008294.JPEG
clip,1,459,NaN,n01518878,n01518878,NaN,ILSVRC2012_val_00008898.JPEG
clip,1,460,NaN,n01518878,n01518878,NaN,ILSVRC2012_val_00010594.JPEG
clip,1,461,NaN,n01518878,n01518878,NaN,ILSVRC2012_val_00010763.JPEG
clip,1,462,NaN,n01518878,n01518878,NaN,ILSVRC2012_val_00013321.JPEG
clip,1,463,NaN,n01518878,n01518878,NaN,ILSVRC2012_val_00014328.JPEG
clip,1,464,NaN,n01518878,n01518878,NaN,ILSVRC2012_val_00015266.JPEG
clip,1,465,NaN,n01518878,n01518878,NaN,ILSVRC2012_val_00015706.JPEG
clip,1,466,NaN,n01518878,n01518878,NaN,ILSVRC2012_val_00017839.JPEG
clip,1,467,NaN,n01518878,n01518878,NaN,ILSVRC2012_val_00019184.JPEG
clip,1,468,NaN,n01518878,n01518878,NaN,ILSVRC2012_val_00023214.JPEG
clip,1,469,NaN,n01518878,n01518878,NaN,ILSVRC2012_val_00023607.JPEG
clip,1,470,NaN,n01518878,n01518878,NaN,ILSVRC2012_val_00023778.JPEG
clip,1,471,NaN,n01518878,n01518878,NaN,ILSVRC2012_val_00024268.JPEG
clip,1,472,NaN,n01518878,n01518878,NaN,ILSVRC2012_val_00024800.JPEG
clip,1,473,NaN,n01518878,n01518878,NaN,ILSVRC2012_val_00028978.JPEG
clip,1,474,NaN,n01518878,n01518878,NaN,ILSVRC2012_val_00030699.JPEG
clip,1,475,NaN,n01518878,n01518878,NaN,ILSVRC2012_val_00031239.JPEG
clip,1,476,NaN,n01518878,n01518878,NaN,ILSVRC2012_val_00031913.JPEG
clip,1,477,NaN,n01518878,n01518878,NaN,ILSVRC2012_val_00032849.JPEG
clip,1,478,NaN,n01518878,n01518878,NaN,ILSVRC2012_val_00033181.JPEG
clip,1,479,NaN,n01518878,n01518878,NaN,ILSVRC2012_val_00034316.JPEG
clip,1,480,NaN,n01518878,n01518878,NaN,ILSVRC2012_val_00035123.JPEG
clip,1,481,NaN,n04005630,n01518878,NaN,ILSVRC2012_val_00035785.JPEG
clip,1,482,NaN,n01518878,n01518878,NaN,ILSVRC2012_val_00036105.JPEG
clip,1,483,NaN,n01518878,n01518878,NaN,ILSVRC2012_val_00036749.JPEG
clip,1,484,NaN,n01518878,n01518878,NaN,ILSVRC2012_val_00037698.JPEG
clip,1,485,NaN,n01518878,n01518878,NaN,ILSVRC2012_val_00037941.JPEG
clip,1,486,NaN,n01518878,n01518878,NaN,ILSVRC2012_val_00038156.JPEG
clip,1,487,NaN,n01518878,n01518878,NaN,ILSVRC2012_val_00039355.JPEG
clip,1,488,NaN,n01518878,n01518878,NaN,ILSVRC2012_val_00041114.JPEG
clip,1,489,NaN,n01518878,n01518878,NaN,ILSVRC2012_val_00041977.JPEG
clip,1,490,NaN,n01518878,n01518878,NaN,ILSVRC2012_val_00042926.JPEG
clip,1,491,NaN,n01518878,n01518878,NaN,ILSVRC2012_val_00043764.JPEG
clip,1,492,NaN,n01518878,n01518878,NaN,ILSVRC2012_val_00044483.JPEG
clip,1,493,NaN,n01518878,n01518878,NaN,ILSVRC2012_val_00044624.JPEG
clip,1,494,NaN,n01518878,n01518878,NaN,ILSVRC2012_val_00044975.JPEG
clip,1,495,NaN,n01518878,n01518878,NaN,ILSVRC2012_val_00045402.JPEG
clip,1,496,NaN,n01518878,n01518878,NaN,ILSVRC2012_val_00046260.JPEG
clip,1,497,NaN,n01518878,n01518878,NaN,ILSVRC2012_val_00046654.JPEG
clip,1,498,NaN,n01518878,n01518878,NaN,ILSVRC2012_val_00047400.JPEG
clip,1,499,NaN,n01518878,n01518878,NaN,ILSVRC2012_val_00048600.JPEG
clip,1,500,NaN,n01518878,n01518878,NaN,ILSVRC2012_val_00049090.JPEG
clip,1,501,NaN,n01580077,n01530575,NaN,ILSVRC2012_val_00000651.JPEG
clip,1,502,NaN,n01530575,n01530575,NaN,ILSVRC2012_val_00000747.JPEG
clip,1,503,NaN,n01530575,n01530575,NaN,ILSVRC2012_val_00002023.JPEG
clip,1,504,NaN,n01530575,n01530575,NaN,ILSVRC2012_val_00002191.JPEG
clip,1,505,NaN,n01530575,n01530575,NaN,ILSVRC2012_val_00002425.JPEG
clip,1,506,NaN,n01530575,n01530575,NaN,ILSVRC2012_val_00002730.JPEG
clip,1,507,NaN,n01530575,n01530575,NaN,ILSVRC2012_val_00004006.JPEG
clip,1,508,NaN,n01530575,n01530575,NaN,ILSVRC2012_val_00006526.JPEG
clip,1,509,NaN,n01530575,n01530575,NaN,ILSVRC2012_val_00006763.JPEG
clip,1,510,NaN,n01530575,n01530575,NaN,ILSVRC2012_val_00010393.JPEG
clip,1,511,NaN,n01530575,n01530575,NaN,ILSVRC2012_val_00010689.JPEG
clip,1,512,NaN,n01530575,n01530575,NaN,ILSVRC2012_val_00010999.JPEG
clip,1,513,NaN,n01530575,n01530575,NaN,ILSVRC2012_val_00011249.JPEG
clip,1,514,NaN,n01530575,n01530575,NaN,ILSVRC2012_val_00012814.JPEG
clip,1,515,NaN,n01530575,n01530575,NaN,ILSVRC2012_val_00013512.JPEG
clip,1,516,NaN,n01530575,n01530575,NaN,ILSVRC2012_val_00015223.JPEG
clip,1,517,NaN,n01530575,n01530575,NaN,ILSVRC2012_val_00016476.JPEG
clip,1,518,NaN,n01530575,n01530575,NaN,ILSVRC2012_val_00016548.JPEG
clip,1,519,NaN,n01530575,n01530575,NaN,ILSVRC2012_val_00020889.JPEG
clip,1,520,NaN,n01530575,n01530575,NaN,ILSVRC2012_val_00023441.JPEG
clip,1,521,NaN,n01530575,n01530575,NaN,ILSVRC2012_val_00023698.JPEG
clip,1,522,NaN,n01530575,n01530575,NaN,ILSVRC2012_val_00023766.JPEG
clip,1,523,NaN,n01530575,n01530575,NaN,ILSVRC2012_val_00025347.JPEG
clip,1,524,NaN,n01530575,n01530575,NaN,ILSVRC2012_val_00025488.JPEG
clip,1,525,NaN,n01530575,n01530575,NaN,ILSVRC2012_val_00026673.JPEG
clip,1,526,NaN,n01530575,n01530575,NaN,ILSVRC2012_val_00026784.JPEG
clip,1,527,NaN,n01530575,n01530575,NaN,ILSVRC2012_val_00027374.JPEG
clip,1,528,NaN,n01530575,n01530575,NaN,ILSVRC2012_val_00027507.JPEG
clip,1,529,NaN,n01530575,n01530575,NaN,ILSVRC2012_val_00027619.JPEG
clip,1,530,NaN,n01530575,n01530575,NaN,ILSVRC2012_val_00028902.JPEG
clip,1,531,NaN,n01530575,n01530575,NaN,ILSVRC2012_val_00030224.JPEG
clip,1,532,NaN,n01530575,n01530575,NaN,ILSVRC2012_val_00033092.JPEG
clip,1,533,NaN,n01530575,n01530575,NaN,ILSVRC2012_val_00033580.JPEG
clip,1,534,NaN,n01530575,n01530575,NaN,ILSVRC2012_val_00034018.JPEG
clip,1,535,NaN,n01530575,n01530575,NaN,ILSVRC2012_val_00034864.JPEG
clip,1,536,NaN,n01530575,n01530575,NaN,ILSVRC2012_val_00035540.JPEG
clip,1,537,NaN,n01530575,n01530575,NaN,ILSVRC2012_val_00035872.JPEG
clip,1,538,NaN,n01530575,n01530575,NaN,ILSVRC2012_val_00037116.JPEG
clip,1,539,NaN,n01530575,n01530575,NaN,ILSVRC2012_val_00037748.JPEG
clip,1,540,NaN,n01530575,n01530575,NaN,ILSVRC2012_val_00038895.JPEG
clip,1,541,NaN,n01530575,n01530575,NaN,ILSVRC2012_val_00043788.JPEG
clip,1,542,NaN,n01530575,n01530575,NaN,ILSVRC2012_val_00045172.JPEG
clip,1,543,NaN,n01530575,n01530575,NaN,ILSVRC2012_val_00045389.JPEG
clip,1,544,NaN,n01530575,n01530575,NaN,ILSVRC2012_val_00045415.JPEG
clip,1,545,NaN,n01530575,n01530575,NaN,ILSVRC2012_val_00045611.JPEG
clip,1,546,NaN,n01530575,n01530575,NaN,ILSVRC2012_val_00046751.JPEG
clip,1,547,NaN,n01531178,n01530575,NaN,ILSVRC2012_val_00046833.JPEG
clip,1,548,NaN,n01530575,n01530575,NaN,ILSVRC2012_val_00047878.JPEG
clip,1,549,NaN,n01530575,n01530575,NaN,ILSVRC2012_val_00047914.JPEG
clip,1,550,NaN,n01530575,n01530575,NaN,ILSVRC2012_val_00049568.JPEG
clip,1,551,NaN,n01531178,n01531178,NaN,ILSVRC2012_val_00000570.JPEG
clip,1,552,NaN,n01531178,n01531178,NaN,ILSVRC2012_val_00001274.JPEG
clip,1,553,NaN,n01531178,n01531178,NaN,ILSVRC2012_val_00002668.JPEG
clip,1,554,NaN,n01531178,n01531178,NaN,ILSVRC2012_val_00003548.JPEG
clip,1,555,NaN,n01531178,n01531178,NaN,ILSVRC2012_val_00003816.JPEG
clip,1,556,NaN,n01531178,n01531178,NaN,ILSVRC2012_val_00004243.JPEG
clip,1,557,NaN,n01531178,n01531178,NaN,ILSVRC2012_val_00004893.JPEG
clip,1,558,NaN,n01531178,n01531178,NaN,ILSVRC2012_val_00005287.JPEG
clip,1,559,NaN,n01531178,n01531178,NaN,ILSVRC2012_val_00005567.JPEG
clip,1,560,NaN,n01531178,n01531178,NaN,ILSVRC2012_val_00009831.JPEG
clip,1,561,NaN,n01531178,n01531178,NaN,ILSVRC2012_val_00010409.JPEG
clip,1,562,NaN,n01531178,n01531178,NaN,ILSVRC2012_val_00013270.JPEG
clip,1,563,NaN,n01531178,n01531178,NaN,ILSVRC2012_val_00013407.JPEG
clip,1,564,NaN,n01531178,n01531178,NaN,ILSVRC2012_val_00013902.JPEG
clip,1,565,NaN,n01531178,n01531178,NaN,ILSVRC2012_val_00013998.JPEG
clip,1,566,NaN,n01531178,n01531178,NaN,ILSVRC2012_val_00015431.JPEG
clip,1,567,NaN,n01531178,n01531178,NaN,ILSVRC2012_val_00015863.JPEG
clip,1,568,NaN,n01531178,n01531178,NaN,ILSVRC2012_val_00015903.JPEG
clip,1,569,NaN,n01531178,n01531178,NaN,ILSVRC2012_val_00016252.JPEG
clip,1,570,NaN,n01531178,n01531178,NaN,ILSVRC2012_val_00016538.JPEG
clip,1,571,NaN,n01531178,n01531178,NaN,ILSVRC2012_val_00017391.JPEG
clip,1,572,NaN,n01531178,n01531178,NaN,ILSVRC2012_val_00019236.JPEG
clip,1,573,NaN,n01531178,n01531178,NaN,ILSVRC2012_val_00019744.JPEG
clip,1,574,NaN,n01531178,n01531178,NaN,ILSVRC2012_val_00024256.JPEG
clip,1,575,NaN,n01531178,n01531178,NaN,ILSVRC2012_val_00025151.JPEG
clip,1,576,NaN,n01531178,n01531178,NaN,ILSVRC2012_val_00025507.JPEG
clip,1,577,NaN,n01531178,n01531178,NaN,ILSVRC2012_val_00025535.JPEG
clip,1,578,NaN,n01531178,n01531178,NaN,ILSVRC2012_val_00025888.JPEG
clip,1,579,NaN,n01531178,n01531178,NaN,ILSVRC2012_val_00026279.JPEG
clip,1,580,NaN,n01828970,n01531178,NaN,ILSVRC2012_val_00028063.JPEG
clip,1,581,NaN,n01531178,n01531178,NaN,ILSVRC2012_val_00029581.JPEG
clip,1,582,NaN,n01531178,n01531178,NaN,ILSVRC2012_val_00029740.JPEG
clip,1,583,NaN,n01531178,n01531178,NaN,ILSVRC2012_val_00030071.JPEG
clip,1,584,NaN,n01531178,n01531178,NaN,ILSVRC2012_val_00030320.JPEG
clip,1,585,NaN,n01531178,n01531178,NaN,ILSVRC2012_val_00031086.JPEG
clip,1,586,NaN,n01531178,n01531178,NaN,ILSVRC2012_val_00031630.JPEG
clip,1,587,NaN,n01531178,n01531178,NaN,ILSVRC2012_val_00032154.JPEG
clip,1,588,NaN,n01531178,n01531178,NaN,ILSVRC2012_val_00032359.JPEG
clip,1,589,NaN,n01531178,n01531178,NaN,ILSVRC2012_val_00032710.JPEG
clip,1,590,NaN,n01531178,n01531178,NaN,ILSVRC2012_val_00032855.JPEG
clip,1,591,NaN,n01531178,n01531178,NaN,ILSVRC2012_val_00032993.JPEG
clip,1,592,NaN,n01531178,n01531178,NaN,ILSVRC2012_val_00034250.JPEG
clip,1,593,NaN,n01531178,n01531178,NaN,ILSVRC2012_val_00035254.JPEG
clip,1,594,NaN,n01531178,n01531178,NaN,ILSVRC2012_val_00035833.JPEG
clip,1,595,NaN,n01531178,n01531178,NaN,ILSVRC2012_val_00037611.JPEG
clip,1,596,NaN,n01531178,n01531178,NaN,ILSVRC2012_val_00041836.JPEG
clip,1,597,NaN,n01531178,n01531178,NaN,ILSVRC2012_val_00042032.JPEG
clip,1,598,NaN,n01531178,n01531178,NaN,ILSVRC2012_val_00044706.JPEG
clip,1,599,NaN,n01531178,n01531178,NaN,ILSVRC2012_val_00047029.JPEG
clip,1,600,NaN,n01531178,n01531178,NaN,ILSVRC2012_val_00048710.JPEG
clip,1,601,NaN,n01532829,n01532829,NaN,ILSVRC2012_val_00000873.JPEG
clip,1,602,NaN,n01532829,n01532829,NaN,ILSVRC2012_val_00001556.JPEG
clip,1,603,NaN,n01532829,n01532829,NaN,ILSVRC2012_val_00002357.JPEG
clip,1,604,NaN,n01532829,n01532829,NaN,ILSVRC2012_val_00004375.JPEG
clip,1,605,NaN,n01532829,n01532829,NaN,ILSVRC2012_val_00004747.JPEG
clip,1,606,NaN,n01532829,n01532829,NaN,ILSVRC2012_val_00004749.JPEG
clip,1,607,NaN,n01532829,n01532829,NaN,ILSVRC2012_val_00005336.JPEG
clip,1,608,NaN,n01532829,n01532829,NaN,ILSVRC2012_val_00005848.JPEG
clip,1,609,NaN,n01532829,n01532829,NaN,ILSVRC2012_val_00006597.JPEG
clip,1,610,NaN,n01532829,n01532829,NaN,ILSVRC2012_val_00006835.JPEG
clip,1,611,NaN,n01532829,n01532829,NaN,ILSVRC2012_val_00007129.JPEG
clip,1,612,NaN,n01532829,n01532829,NaN,ILSVRC2012_val_00007237.JPEG
clip,1,613,NaN,n01532829,n01532829,NaN,ILSVRC2012_val_00009239.JPEG
clip,1,614,NaN,n01532829,n01532829,NaN,ILSVRC2012_val_00010310.JPEG
clip,1,615,NaN,n01560419,n01532829,NaN,ILSVRC2012_val_00010443.JPEG
clip,1,616,NaN,n01532829,n01532829,NaN,ILSVRC2012_val_00011056.JPEG
clip,1,617,NaN,n01537544,n01532829,NaN,ILSVRC2012_val_00013209.JPEG
clip,1,618,NaN,n01532829,n01532829,NaN,ILSVRC2012_val_00013367.JPEG
clip,1,619,NaN,n01532829,n01532829,NaN,ILSVRC2012_val_00013456.JPEG
clip,1,620,NaN,n01532829,n01532829,NaN,ILSVRC2012_val_00015830.JPEG
clip,1,621,NaN,n01532829,n01532829,NaN,ILSVRC2012_val_00015964.JPEG
clip,1,622,NaN,n01532829,n01532829,NaN,ILSVRC2012_val_00016198.JPEG
clip,1,623,NaN,n01532829,n01532829,NaN,ILSVRC2012_val_00017577.JPEG
clip,1,624,NaN,n01532829,n01532829,NaN,ILSVRC2012_val_00018162.JPEG
clip,1,625,NaN,n01532829,n01532829,NaN,ILSVRC2012_val_00018699.JPEG
clip,1,626,NaN,n01532829,n01532829,NaN,ILSVRC2012_val_00020495.JPEG
clip,1,627,NaN,n01532829,n01532829,NaN,ILSVRC2012_val_00021523.JPEG
clip,1,628,NaN,n01532829,n01532829,NaN,ILSVRC2012_val_00022727.JPEG
clip,1,629,NaN,n01532829,n01532829,NaN,ILSVRC2012_val_00022889.JPEG
clip,1,630,NaN,n01532829,n01532829,NaN,ILSVRC2012_val_00023162.JPEG
clip,1,631,NaN,n01532829,n01532829,NaN,ILSVRC2012_val_00023942.JPEG
clip,1,632,NaN,n01532829,n01532829,NaN,ILSVRC2012_val_00026123.JPEG
clip,1,633,NaN,n01532829,n01532829,NaN,ILSVRC2012_val_00026755.JPEG
clip,1,634,NaN,n01532829,n01532829,NaN,ILSVRC2012_val_00026776.JPEG
clip,1,635,NaN,n01532829,n01532829,NaN,ILSVRC2012_val_00028791.JPEG
clip,1,636,NaN,n01532829,n01532829,NaN,ILSVRC2012_val_00029709.JPEG
clip,1,637,NaN,n01532829,n01532829,NaN,ILSVRC2012_val_00030042.JPEG
clip,1,638,NaN,n01532829,n01532829,NaN,ILSVRC2012_val_00031171.JPEG
clip,1,639,NaN,n01532829,n01532829,NaN,ILSVRC2012_val_00036284.JPEG
clip,1,640,NaN,n01532829,n01532829,NaN,ILSVRC2012_val_00038091.JPEG
clip,1,641,NaN,n01532829,n01532829,NaN,ILSVRC2012_val_00038160.JPEG
clip,1,642,NaN,n01532829,n01532829,NaN,ILSVRC2012_val_00038372.JPEG
clip,1,643,NaN,n01532829,n01532829,NaN,ILSVRC2012_val_00042370.JPEG
clip,1,644,NaN,n01532829,n01532829,NaN,ILSVRC2012_val_00043392.JPEG
clip,1,645,NaN,n01532829,n01532829,NaN,ILSVRC2012_val_00045623.JPEG
clip,1,646,NaN,n01532829,n01532829,NaN,ILSVRC2012_val_00047688.JPEG
clip,1,647,NaN,n01532829,n01532829,NaN,ILSVRC2012_val_00048144.JPEG
clip,1,648,NaN,n01532829,n01532829,NaN,ILSVRC2012_val_00048152.JPEG
clip,1,649,NaN,n01532829,n01532829,NaN,ILSVRC2012_val_00048437.JPEG
clip,1,650,NaN,n01532829,n01532829,NaN,ILSVRC2012_val_00048642.JPEG
clip,1,651,NaN,n01534433,n01534433,NaN,ILSVRC2012_val_00000247.JPEG
clip,1,652,NaN,n01534433,n01534433,NaN,ILSVRC2012_val_00000713.JPEG
clip,1,653,NaN,n01534433,n01534433,NaN,ILSVRC2012_val_00001915.JPEG
clip,1,654,NaN,n01534433,n01534433,NaN,ILSVRC2012_val_00003116.JPEG
clip,1,655,NaN,n01534433,n01534433,NaN,ILSVRC2012_val_00003878.JPEG
clip,1,656,NaN,n01534433,n01534433,NaN,ILSVRC2012_val_00003903.JPEG
clip,1,657,NaN,n01534433,n01534433,NaN,ILSVRC2012_val_00004245.JPEG
clip,1,658,NaN,n01534433,n01534433,NaN,ILSVRC2012_val_00004577.JPEG
clip,1,659,NaN,n01534433,n01534433,NaN,ILSVRC2012_val_00006326.JPEG
clip,1,660,NaN,n01534433,n01534433,NaN,ILSVRC2012_val_00007853.JPEG
clip,1,661,NaN,n01534433,n01534433,NaN,ILSVRC2012_val_00007872.JPEG
clip,1,662,NaN,n01534433,n01534433,NaN,ILSVRC2012_val_00009351.JPEG
clip,1,663,NaN,n01534433,n01534433,NaN,ILSVRC2012_val_00010456.JPEG
clip,1,664,NaN,n01534433,n01534433,NaN,ILSVRC2012_val_00011178.JPEG
clip,1,665,NaN,n01534433,n01534433,NaN,ILSVRC2012_val_00011841.JPEG
clip,1,666,NaN,n01534433,n01534433,NaN,ILSVRC2012_val_00011915.JPEG
clip,1,667,NaN,n01534433,n01534433,NaN,ILSVRC2012_val_00012058.JPEG
clip,1,668,NaN,n01534433,n01534433,NaN,ILSVRC2012_val_00013277.JPEG
clip,1,669,NaN,n01534433,n01534433,NaN,ILSVRC2012_val_00013504.JPEG
clip,1,670,NaN,n01532829,n01534433,NaN,ILSVRC2012_val_00013945.JPEG
clip,1,671,NaN,n01534433,n01534433,NaN,ILSVRC2012_val_00014108.JPEG
clip,1,672,NaN,n01534433,n01534433,NaN,ILSVRC2012_val_00014139.JPEG
clip,1,673,NaN,n01534433,n01534433,NaN,ILSVRC2012_val_00015216.JPEG
clip,1,674,NaN,n01534433,n01534433,NaN,ILSVRC2012_val_00015410.JPEG
clip,1,675,NaN,n01534433,n01534433,NaN,ILSVRC2012_val_00015416.JPEG
clip,1,676,NaN,n01534433,n01534433,NaN,ILSVRC2012_val_00016677.JPEG
clip,1,677,NaN,n01534433,n01534433,NaN,ILSVRC2012_val_00017384.JPEG
clip,1,678,NaN,n01534433,n01534433,NaN,ILSVRC2012_val_00017712.JPEG
clip,1,679,NaN,n01534433,n01534433,NaN,ILSVRC2012_val_00017970.JPEG
clip,1,680,NaN,n01534433,n01534433,NaN,ILSVRC2012_val_00021650.JPEG
clip,1,681,NaN,n01534433,n01534433,NaN,ILSVRC2012_val_00023125.JPEG
clip,1,682,NaN,n01534433,n01534433,NaN,ILSVRC2012_val_00023850.JPEG
clip,1,683,NaN,n01534433,n01534433,NaN,ILSVRC2012_val_00024884.JPEG
clip,1,684,NaN,n01534433,n01534433,NaN,ILSVRC2012_val_00026687.JPEG
clip,1,685,NaN,n01534433,n01534433,NaN,ILSVRC2012_val_00027831.JPEG
clip,1,686,NaN,n01534433,n01534433,NaN,ILSVRC2012_val_00029999.JPEG
clip,1,687,NaN,n01534433,n01534433,NaN,ILSVRC2012_val_00030544.JPEG
clip,1,688,NaN,n01534433,n01534433,NaN,ILSVRC2012_val_00030657.JPEG
clip,1,689,NaN,n01534433,n01534433,NaN,ILSVRC2012_val_00030911.JPEG
clip,1,690,NaN,n01534433,n01534433,NaN,ILSVRC2012_val_00032025.JPEG
clip,1,691,NaN,n01534433,n01534433,NaN,ILSVRC2012_val_00035389.JPEG
clip,1,692,NaN,n01534433,n01534433,NaN,ILSVRC2012_val_00036008.JPEG
clip,1,693,NaN,n01534433,n01534433,NaN,ILSVRC2012_val_00036042.JPEG
clip,1,694,NaN,n01534433,n01534433,NaN,ILSVRC2012_val_00037239.JPEG
clip,1,695,NaN,n01534433,n01534433,NaN,ILSVRC2012_val_00038794.JPEG
clip,1,696,NaN,n01534433,n01534433,NaN,ILSVRC2012_val_00039801.JPEG
clip,1,697,NaN,n01534433,n01534433,NaN,ILSVRC2012_val_00040606.JPEG
clip,1,698,NaN,n01534433,n01534433,NaN,ILSVRC2012_val_00045480.JPEG
clip,1,699,NaN,n01534433,n01534433,NaN,ILSVRC2012_val_00046797.JPEG
clip,1,700,NaN,n01534433,n01534433,NaN,ILSVRC2012_val_00047333.JPEG
clip,1,701,NaN,n01537544,n01537544,NaN,ILSVRC2012_val_00000414.JPEG
clip,1,702,NaN,n01537544,n01537544,NaN,ILSVRC2012_val_00001462.JPEG
clip,1,703,NaN,n01537544,n01537544,NaN,ILSVRC2012_val_00002071.JPEG
clip,1,704,NaN,n01537544,n01537544,NaN,ILSVRC2012_val_00002449.JPEG
clip,1,705,NaN,n01537544,n01537544,NaN,ILSVRC2012_val_00003279.JPEG
clip,1,706,NaN,n01537544,n01537544,NaN,ILSVRC2012_val_00003557.JPEG
clip,1,707,NaN,n01537544,n01537544,NaN,ILSVRC2012_val_00005156.JPEG
clip,1,708,NaN,n01537544,n01537544,NaN,ILSVRC2012_val_00005931.JPEG
clip,1,709,NaN,n01537544,n01537544,NaN,ILSVRC2012_val_00006328.JPEG
clip,1,710,NaN,n01537544,n01537544,NaN,ILSVRC2012_val_00008420.JPEG
clip,1,711,NaN,n01537544,n01537544,NaN,ILSVRC2012_val_00010339.JPEG
clip,1,712,NaN,n01537544,n01537544,NaN,ILSVRC2012_val_00010352.JPEG
clip,1,713,NaN,n01537544,n01537544,NaN,ILSVRC2012_val_00011646.JPEG
clip,1,714,NaN,n01537544,n01537544,NaN,ILSVRC2012_val_00012939.JPEG
clip,1,715,NaN,n01537544,n01537544,NaN,ILSVRC2012_val_00018676.JPEG
clip,1,716,NaN,n01537544,n01537544,NaN,ILSVRC2012_val_00020178.JPEG
clip,1,717,NaN,n01537544,n01537544,NaN,ILSVRC2012_val_00021300.JPEG
clip,1,718,NaN,n01537544,n01537544,NaN,ILSVRC2012_val_00022076.JPEG
clip,1,719,NaN,n01537544,n01537544,NaN,ILSVRC2012_val_00023187.JPEG
clip,1,720,NaN,n01537544,n01537544,NaN,ILSVRC2012_val_00023438.JPEG
clip,1,721,NaN,n01537544,n01537544,NaN,ILSVRC2012_val_00023573.JPEG
clip,1,722,NaN,n01537544,n01537544,NaN,ILSVRC2012_val_00025037.JPEG
clip,1,723,NaN,n01537544,n01537544,NaN,ILSVRC2012_val_00025428.JPEG
clip,1,724,NaN,n01537544,n01537544,NaN,ILSVRC2012_val_00026259.JPEG
clip,1,725,NaN,n01537544,n01537544,NaN,ILSVRC2012_val_00027145.JPEG
clip,1,726,NaN,n01537544,n01537544,NaN,ILSVRC2012_val_00027254.JPEG
clip,1,727,NaN,n01537544,n01537544,NaN,ILSVRC2012_val_00027498.JPEG
clip,1,728,NaN,n01537544,n01537544,NaN,ILSVRC2012_val_00027811.JPEG
clip,1,729,NaN,n01537544,n01537544,NaN,ILSVRC2012_val_00028024.JPEG
clip,1,730,NaN,n01537544,n01537544,NaN,ILSVRC2012_val_00029310.JPEG
clip,1,731,NaN,n01537544,n01537544,NaN,ILSVRC2012_val_00031512.JPEG
clip,1,732,NaN,n01537544,n01537544,NaN,ILSVRC2012_val_00031716.JPEG
clip,1,733,NaN,n01537544,n01537544,NaN,ILSVRC2012_val_00031987.JPEG
clip,1,734,NaN,n01537544,n01537544,NaN,ILSVRC2012_val_00032164.JPEG
clip,1,735,NaN,n01537544,n01537544,NaN,ILSVRC2012_val_00033196.JPEG
clip,1,736,NaN,n01537544,n01537544,NaN,ILSVRC2012_val_00035565.JPEG
clip,1,737,NaN,n01537544,n01537544,NaN,ILSVRC2012_val_00035735.JPEG
clip,1,738,NaN,n01537544,n01537544,NaN,ILSVRC2012_val_00036431.JPEG
clip,1,739,NaN,n01537544,n01537544,NaN,ILSVRC2012_val_00037454.JPEG
clip,1,740,NaN,n01537544,n01537544,NaN,ILSVRC2012_val_00039571.JPEG
clip,1,741,NaN,n01537544,n01537544,NaN,ILSVRC2012_val_00040071.JPEG
clip,1,742,NaN,n01537544,n01537544,NaN,ILSVRC2012_val_00041252.JPEG
clip,1,743,NaN,n01537544,n01537544,NaN,ILSVRC2012_val_00041595.JPEG
clip,1,744,NaN,n01537544,n01537544,NaN,ILSVRC2012_val_00043965.JPEG
clip,1,745,NaN,n01537544,n01537544,NaN,ILSVRC2012_val_00044540.JPEG
clip,1,746,NaN,n01537544,n01537544,NaN,ILSVRC2012_val_00046071.JPEG
clip,1,747,NaN,n01537544,n01537544,NaN,ILSVRC2012_val_00047272.JPEG
clip,1,748,NaN,n01537544,n01537544,NaN,ILSVRC2012_val_00048659.JPEG
clip,1,749,NaN,n01537544,n01537544,NaN,ILSVRC2012_val_00048732.JPEG
clip,1,750,NaN,n01537544,n01537544,NaN,ILSVRC2012_val_00048829.JPEG
clip,1,751,NaN,n01530575,n01558993,NaN,ILSVRC2012_val_00001598.JPEG
clip,1,752,NaN,n01558993,n01558993,NaN,ILSVRC2012_val_00002825.JPEG
clip,1,753,NaN,n01558993,n01558993,NaN,ILSVRC2012_val_00005412.JPEG
clip,1,754,NaN,n01558993,n01558993,NaN,ILSVRC2012_val_00005594.JPEG
clip,1,755,NaN,n01558993,n01558993,NaN,ILSVRC2012_val_00005833.JPEG
clip,1,756,NaN,n01558993,n01558993,NaN,ILSVRC2012_val_00006030.JPEG
clip,1,757,NaN,n01558993,n01558993,NaN,ILSVRC2012_val_00007667.JPEG
clip,1,758,NaN,n01558993,n01558993,NaN,ILSVRC2012_val_00009092.JPEG
clip,1,759,NaN,n01558993,n01558993,NaN,ILSVRC2012_val_00010767.JPEG
clip,1,760,NaN,n01558993,n01558993,NaN,ILSVRC2012_val_00012651.JPEG
clip,1,761,NaN,n01558993,n01558993,NaN,ILSVRC2012_val_00014336.JPEG
clip,1,762,NaN,n01558993,n01558993,NaN,ILSVRC2012_val_00014362.JPEG
clip,1,763,NaN,n01558993,n01558993,NaN,ILSVRC2012_val_00017660.JPEG
clip,1,764,NaN,n01558993,n01558993,NaN,ILSVRC2012_val_00018692.JPEG
clip,1,765,NaN,n01558993,n01558993,NaN,ILSVRC2012_val_00019038.JPEG
clip,1,766,NaN,n01558993,n01558993,NaN,ILSVRC2012_val_00019082.JPEG
clip,1,767,NaN,n01558993,n01558993,NaN,ILSVRC2012_val_00019208.JPEG
clip,1,768,NaN,n01558993,n01558993,NaN,ILSVRC2012_val_00020610.JPEG
clip,1,769,NaN,n01558993,n01558993,NaN,ILSVRC2012_val_00021239.JPEG
clip,1,770,NaN,n01558993,n01558993,NaN,ILSVRC2012_val_00022186.JPEG
clip,1,771,NaN,n01558993,n01558993,NaN,ILSVRC2012_val_00022407.JPEG
clip,1,772,NaN,n01558993,n01558993,NaN,ILSVRC2012_val_00024704.JPEG
clip,1,773,NaN,n01558993,n01558993,NaN,ILSVRC2012_val_00025035.JPEG
clip,1,774,NaN,n01558993,n01558993,NaN,ILSVRC2012_val_00027535.JPEG
clip,1,775,NaN,n01558993,n01558993,NaN,ILSVRC2012_val_00028224.JPEG
clip,1,776,NaN,n01558993,n01558993,NaN,ILSVRC2012_val_00028607.JPEG
clip,1,777,NaN,n01558993,n01558993,NaN,ILSVRC2012_val_00029417.JPEG
clip,1,778,NaN,n01558993,n01558993,NaN,ILSVRC2012_val_00029495.JPEG
clip,1,779,NaN,n01558993,n01558993,NaN,ILSVRC2012_val_00029627.JPEG
clip,1,780,NaN,n01558993,n01558993,NaN,ILSVRC2012_val_00030475.JPEG
clip,1,781,NaN,n01558993,n01558993,NaN,ILSVRC2012_val_00030701.JPEG
clip,1,782,NaN,n01558993,n01558993,NaN,ILSVRC2012_val_00031273.JPEG
clip,1,783,NaN,n01558993,n01558993,NaN,ILSVRC2012_val_00034482.JPEG
clip,1,784,NaN,n01558993,n01558993,NaN,ILSVRC2012_val_00035060.JPEG
clip,1,785,NaN,n01558993,n01558993,NaN,ILSVRC2012_val_00035131.JPEG
clip,1,786,NaN,n01558993,n01558993,NaN,ILSVRC2012_val_00035807.JPEG
clip,1,787,NaN,n01558993,n01558993,NaN,ILSVRC2012_val_00038488.JPEG
clip,1,788,NaN,n01558993,n01558993,NaN,ILSVRC2012_val_00039814.JPEG
clip,1,789,NaN,n01558993,n01558993,NaN,ILSVRC2012_val_00039913.JPEG
clip,1,790,NaN,n01558993,n01558993,NaN,ILSVRC2012_val_00040426.JPEG
clip,1,791,NaN,n01558993,n01558993,NaN,ILSVRC2012_val_00040538.JPEG
clip,1,792,NaN,n01558993,n01558993,NaN,ILSVRC2012_val_00041152.JPEG
clip,1,793,NaN,n01558993,n01558993,NaN,ILSVRC2012_val_00041944.JPEG
clip,1,794,NaN,n01558993,n01558993,NaN,ILSVRC2012_val_00043300.JPEG
clip,1,795,NaN,n01558993,n01558993,NaN,ILSVRC2012_val_00044311.JPEG
clip,1,796,NaN,n01558993,n01558993,NaN,ILSVRC2012_val_00044378.JPEG
clip,1,797,NaN,n01530575,n01558993,NaN,ILSVRC2012_val_00045150.JPEG
clip,1,798,NaN,n01530575,n01558993,NaN,ILSVRC2012_val_00045294.JPEG
clip,1,799,NaN,n01558993,n01558993,NaN,ILSVRC2012_val_00047592.JPEG
clip,1,800,NaN,n01558993,n01558993,NaN,ILSVRC2012_val_00049776.JPEG
clip,1,801,NaN,n01560419,n01560419,NaN,ILSVRC2012_val_00000198.JPEG
clip,1,802,NaN,n01560419,n01560419,NaN,ILSVRC2012_val_00000217.JPEG
clip,1,803,NaN,n01560419,n01560419,NaN,ILSVRC2012_val_00000439.JPEG
clip,1,804,NaN,n01560419,n01560419,NaN,ILSVRC2012_val_00000638.JPEG
clip,1,805,NaN,n01560419,n01560419,NaN,ILSVRC2012_val_00001024.JPEG
clip,1,806,NaN,n01558993,n01560419,NaN,ILSVRC2012_val_00001720.JPEG
clip,1,807,NaN,n01560419,n01560419,NaN,ILSVRC2012_val_00001751.JPEG
clip,1,808,NaN,n01560419,n01560419,NaN,ILSVRC2012_val_00002052.JPEG
clip,1,809,NaN,n01560419,n01560419,NaN,ILSVRC2012_val_00004037.JPEG
clip,1,810,NaN,n01560419,n01560419,NaN,ILSVRC2012_val_00006321.JPEG
clip,1,811,NaN,n01560419,n01560419,NaN,ILSVRC2012_val_00006603.JPEG
clip,1,812,NaN,n01833805,n01560419,NaN,ILSVRC2012_val_00007263.JPEG
clip,1,813,NaN,n01560419,n01560419,NaN,ILSVRC2012_val_00009807.JPEG
clip,1,814,NaN,n01795545,n01560419,NaN,ILSVRC2012_val_00011267.JPEG
clip,1,815,NaN,n01560419,n01560419,NaN,ILSVRC2012_val_00011331.JPEG
clip,1,816,NaN,n01560419,n01560419,NaN,ILSVRC2012_val_00011420.JPEG
clip,1,817,NaN,n01560419,n01560419,NaN,ILSVRC2012_val_00012870.JPEG
clip,1,818,NaN,n01560419,n01560419,NaN,ILSVRC2012_val_00014046.JPEG
clip,1,819,NaN,n01560419,n01560419,NaN,ILSVRC2012_val_00014678.JPEG
clip,1,820,NaN,n01560419,n01560419,NaN,ILSVRC2012_val_00016840.JPEG
clip,1,821,NaN,n01560419,n01560419,NaN,ILSVRC2012_val_00017310.JPEG
clip,1,822,NaN,n01560419,n01560419,NaN,ILSVRC2012_val_00018145.JPEG
clip,1,823,NaN,n01560419,n01560419,NaN,ILSVRC2012_val_00018672.JPEG
clip,1,824,NaN,n01560419,n01560419,NaN,ILSVRC2012_val_00018680.JPEG
clip,1,825,NaN,n01560419,n01560419,NaN,ILSVRC2012_val_00020788.JPEG
clip,1,826,NaN,n01560419,n01560419,NaN,ILSVRC2012_val_00021085.JPEG
clip,1,827,NaN,n01560419,n01560419,NaN,ILSVRC2012_val_00025526.JPEG
clip,1,828,NaN,n01560419,n01560419,NaN,ILSVRC2012_val_00026010.JPEG
clip,1,829,NaN,n01560419,n01560419,NaN,ILSVRC2012_val_00026362.JPEG
clip,1,830,NaN,n01560419,n01560419,NaN,ILSVRC2012_val_00026541.JPEG
clip,1,831,NaN,n01560419,n01560419,NaN,ILSVRC2012_val_00026929.JPEG
clip,1,832,NaN,n01560419,n01560419,NaN,ILSVRC2012_val_00028230.JPEG
clip,1,833,NaN,n01560419,n01560419,NaN,ILSVRC2012_val_00029835.JPEG
clip,1,834,NaN,n01560419,n01560419,NaN,ILSVRC2012_val_00030283.JPEG
clip,1,835,NaN,n01824575,n01560419,NaN,ILSVRC2012_val_00030966.JPEG
clip,1,836,NaN,n01560419,n01560419,NaN,ILSVRC2012_val_00031649.JPEG
clip,1,837,NaN,n01560419,n01560419,NaN,ILSVRC2012_val_00031772.JPEG
clip,1,838,NaN,n01560419,n01560419,NaN,ILSVRC2012_val_00033691.JPEG
clip,1,839,NaN,n01824575,n01560419,NaN,ILSVRC2012_val_00034720.JPEG
clip,1,840,NaN,n01560419,n01560419,NaN,ILSVRC2012_val_00036999.JPEG
clip,1,841,NaN,n01560419,n01560419,NaN,ILSVRC2012_val_00039759.JPEG
clip,1,842,NaN,n01560419,n01560419,NaN,ILSVRC2012_val_00041990.JPEG
clip,1,843,NaN,n01560419,n01560419,NaN,ILSVRC2012_val_00042048.JPEG
clip,1,844,NaN,n01560419,n01560419,NaN,ILSVRC2012_val_00042600.JPEG
clip,1,845,NaN,n01560419,n01560419,NaN,ILSVRC2012_val_00044009.JPEG
clip,1,846,NaN,n01560419,n01560419,NaN,ILSVRC2012_val_00045785.JPEG
clip,1,847,NaN,n01560419,n01560419,NaN,ILSVRC2012_val_00046173.JPEG
clip,1,848,NaN,n01560419,n01560419,NaN,ILSVRC2012_val_00047474.JPEG
clip,1,849,NaN,n01560419,n01560419,NaN,ILSVRC2012_val_00048178.JPEG
clip,1,850,NaN,n01560419,n01560419,NaN,ILSVRC2012_val_00049803.JPEG
clip,1,851,NaN,n01580077,n01580077,NaN,ILSVRC2012_val_00000880.JPEG
clip,1,852,NaN,n01580077,n01580077,NaN,ILSVRC2012_val_00001084.JPEG
clip,1,853,NaN,n01560419,n01580077,NaN,ILSVRC2012_val_00001508.JPEG
clip,1,854,NaN,n01580077,n01580077,NaN,ILSVRC2012_val_00002655.JPEG
clip,1,855,NaN,n01537544,n01580077,NaN,ILSVRC2012_val_00002929.JPEG
clip,1,856,NaN,n01537544,n01580077,NaN,ILSVRC2012_val_00003386.JPEG
clip,1,857,NaN,n01580077,n01580077,NaN,ILSVRC2012_val_00003861.JPEG
clip,1,858,NaN,n01580077,n01580077,NaN,ILSVRC2012_val_00004316.JPEG
clip,1,859,NaN,n01537544,n01580077,NaN,ILSVRC2012_val_00004317.JPEG
clip,1,860,NaN,n01580077,n01580077,NaN,ILSVRC2012_val_00004344.JPEG
clip,1,861,NaN,n01537544,n01580077,NaN,ILSVRC2012_val_00006267.JPEG
clip,1,862,NaN,n01580077,n01580077,NaN,ILSVRC2012_val_00006463.JPEG
clip,1,863,NaN,n01580077,n01580077,NaN,ILSVRC2012_val_00006851.JPEG
clip,1,864,NaN,n01580077,n01580077,NaN,ILSVRC2012_val_00009535.JPEG
clip,1,865,NaN,n01580077,n01580077,NaN,ILSVRC2012_val_00010240.JPEG
clip,1,866,NaN,n01580077,n01580077,NaN,ILSVRC2012_val_00010272.JPEG
clip,1,867,NaN,n01580077,n01580077,NaN,ILSVRC2012_val_00011446.JPEG
clip,1,868,NaN,n01580077,n01580077,NaN,ILSVRC2012_val_00012132.JPEG
clip,1,869,NaN,n01580077,n01580077,NaN,ILSVRC2012_val_00013753.JPEG
clip,1,870,NaN,n01537544,n01580077,NaN,ILSVRC2012_val_00015195.JPEG
clip,1,871,NaN,n01580077,n01580077,NaN,ILSVRC2012_val_00016831.JPEG
clip,1,872,NaN,n01580077,n01580077,NaN,ILSVRC2012_val_00017024.JPEG
clip,1,873,NaN,n01580077,n01580077,NaN,ILSVRC2012_val_00017975.JPEG
clip,1,874,NaN,n01580077,n01580077,NaN,ILSVRC2012_val_00020905.JPEG
clip,1,875,NaN,n01560419,n01580077,NaN,ILSVRC2012_val_00022106.JPEG
clip,1,876,NaN,n01580077,n01580077,NaN,ILSVRC2012_val_00022505.JPEG
clip,1,877,NaN,n01580077,n01580077,NaN,ILSVRC2012_val_00023945.JPEG
clip,1,878,NaN,n01580077,n01580077,NaN,ILSVRC2012_val_00025361.JPEG
clip,1,879,NaN,n01580077,n01580077,NaN,ILSVRC2012_val_00026136.JPEG
clip,1,880,NaN,n01580077,n01580077,NaN,ILSVRC2012_val_00026465.JPEG
clip,1,881,NaN,n01580077,n01580077,NaN,ILSVRC2012_val_00026656.JPEG
clip,1,882,NaN,n01580077,n01580077,NaN,ILSVRC2012_val_00028440.JPEG
clip,1,883,NaN,n01580077,n01580077,NaN,ILSVRC2012_val_00028524.JPEG
clip,1,884,NaN,n01580077,n01580077,NaN,ILSVRC2012_val_00032586.JPEG
clip,1,885,NaN,n01580077,n01580077,NaN,ILSVRC2012_val_00032702.JPEG
clip,1,886,NaN,n01580077,n01580077,NaN,ILSVRC2012_val_00032831.JPEG
clip,1,887,NaN,n01580077,n01580077,NaN,ILSVRC2012_val_00033307.JPEG
clip,1,888,NaN,n01580077,n01580077,NaN,ILSVRC2012_val_00033515.JPEG
clip,1,889,NaN,n01580077,n01580077,NaN,ILSVRC2012_val_00034144.JPEG
clip,1,890,NaN,n01580077,n01580077,NaN,ILSVRC2012_val_00034333.JPEG
clip,1,891,NaN,n01580077,n01580077,NaN,ILSVRC2012_val_00034552.JPEG
clip,1,892,NaN,n01592084,n01580077,NaN,ILSVRC2012_val_00037939.JPEG
clip,1,893,NaN,n01580077,n01580077,NaN,ILSVRC2012_val_00038405.JPEG
clip,1,894,NaN,n01580077,n01580077,NaN,ILSVRC2012_val_00040412.JPEG
clip,1,895,NaN,n01592084,n01580077,NaN,ILSVRC2012_val_00041308.JPEG
clip,1,896,NaN,n01580077,n01580077,NaN,ILSVRC2012_val_00042248.JPEG
clip,1,897,NaN,n01580077,n01580077,NaN,ILSVRC2012_val_00043995.JPEG
clip,1,898,NaN,n01580077,n01580077,NaN,ILSVRC2012_val_00045062.JPEG
clip,1,899,NaN,n01580077,n01580077,NaN,ILSVRC2012_val_00046280.JPEG
clip,1,900,NaN,n01580077,n01580077,NaN,ILSVRC2012_val_00048360.JPEG
clip,1,901,NaN,n01582220,n01582220,NaN,ILSVRC2012_val_00000476.JPEG
clip,1,902,NaN,n01582220,n01582220,NaN,ILSVRC2012_val_00000963.JPEG
clip,1,903,NaN,n01582220,n01582220,NaN,ILSVRC2012_val_00002536.JPEG
clip,1,904,NaN,n01582220,n01582220,NaN,ILSVRC2012_val_00003092.JPEG
clip,1,905,NaN,n01582220,n01582220,NaN,ILSVRC2012_val_00003665.JPEG
clip,1,906,NaN,n01582220,n01582220,NaN,ILSVRC2012_val_00003762.JPEG
clip,1,907,NaN,n01582220,n01582220,NaN,ILSVRC2012_val_00004518.JPEG
clip,1,908,NaN,n01582220,n01582220,NaN,ILSVRC2012_val_00004559.JPEG
clip,1,909,NaN,n01582220,n01582220,NaN,ILSVRC2012_val_00006171.JPEG
clip,1,910,NaN,n01582220,n01582220,NaN,ILSVRC2012_val_00007231.JPEG
clip,1,911,NaN,n01582220,n01582220,NaN,ILSVRC2012_val_00008347.JPEG
clip,1,912,NaN,n01534433,n01582220,NaN,ILSVRC2012_val_00008512.JPEG
clip,1,913,NaN,n01582220,n01582220,NaN,ILSVRC2012_val_00008786.JPEG
clip,1,914,NaN,n02037110,n01582220,NaN,ILSVRC2012_val_00009981.JPEG
clip,1,915,NaN,n01582220,n01582220,NaN,ILSVRC2012_val_00010501.JPEG
clip,1,916,NaN,n01582220,n01582220,NaN,ILSVRC2012_val_00011501.JPEG
clip,1,917,NaN,n01582220,n01582220,NaN,ILSVRC2012_val_00016794.JPEG
clip,1,918,NaN,n01582220,n01582220,NaN,ILSVRC2012_val_00017648.JPEG
clip,1,919,NaN,n01582220,n01582220,NaN,ILSVRC2012_val_00018183.JPEG
clip,1,920,NaN,n01582220,n01582220,NaN,ILSVRC2012_val_00018250.JPEG
clip,1,921,NaN,n01582220,n01582220,NaN,ILSVRC2012_val_00021956.JPEG
clip,1,922,NaN,n01580077,n01582220,NaN,ILSVRC2012_val_00024025.JPEG
clip,1,923,NaN,n01582220,n01582220,NaN,ILSVRC2012_val_00024044.JPEG
clip,1,924,NaN,n01582220,n01582220,NaN,ILSVRC2012_val_00025806.JPEG
clip,1,925,NaN,n01582220,n01582220,NaN,ILSVRC2012_val_00029695.JPEG
clip,1,926,NaN,n01582220,n01582220,NaN,ILSVRC2012_val_00030017.JPEG
clip,1,927,NaN,n01582220,n01582220,NaN,ILSVRC2012_val_00030073.JPEG
clip,1,928,NaN,n01582220,n01582220,NaN,ILSVRC2012_val_00030845.JPEG
clip,1,929,NaN,n01582220,n01582220,NaN,ILSVRC2012_val_00032667.JPEG
clip,1,930,NaN,n01582220,n01582220,NaN,ILSVRC2012_val_00033150.JPEG
clip,1,931,NaN,n01582220,n01582220,NaN,ILSVRC2012_val_00033483.JPEG
clip,1,932,NaN,n01582220,n01582220,NaN,ILSVRC2012_val_00034437.JPEG
clip,1,933,NaN,n01582220,n01582220,NaN,ILSVRC2012_val_00035348.JPEG
clip,1,934,NaN,n01582220,n01582220,NaN,ILSVRC2012_val_00036015.JPEG
clip,1,935,NaN,n01582220,n01582220,NaN,ILSVRC2012_val_00037436.JPEG
clip,1,936,NaN,n01582220,n01582220,NaN,ILSVRC2012_val_00037806.JPEG
clip,1,937,NaN,n01582220,n01582220,NaN,ILSVRC2012_val_00037824.JPEG
clip,1,938,NaN,n01582220,n01582220,NaN,ILSVRC2012_val_00037920.JPEG
clip,1,939,NaN,n01582220,n01582220,NaN,ILSVRC2012_val_00039004.JPEG
clip,1,940,NaN,n01582220,n01582220,NaN,ILSVRC2012_val_00039219.JPEG
clip,1,941,NaN,n01582220,n01582220,NaN,ILSVRC2012_val_00040439.JPEG
clip,1,942,NaN,n01582220,n01582220,NaN,ILSVRC2012_val_00040938.JPEG
clip,1,943,NaN,n01560419,n01582220,NaN,ILSVRC2012_val_00041051.JPEG
clip,1,944,NaN,n02422699,n01582220,NaN,ILSVRC2012_val_00041135.JPEG
clip,1,945,NaN,n01582220,n01582220,NaN,ILSVRC2012_val_00041206.JPEG
clip,1,946,NaN,n01582220,n01582220,NaN,ILSVRC2012_val_00044192.JPEG
clip,1,947,NaN,n01582220,n01582220,NaN,ILSVRC2012_val_00044507.JPEG
clip,1,948,NaN,n01608432,n01582220,NaN,ILSVRC2012_val_00045948.JPEG
clip,1,949,NaN,n01582220,n01582220,NaN,ILSVRC2012_val_00046917.JPEG
clip,1,950,NaN,n01582220,n01582220,NaN,ILSVRC2012_val_00047827.JPEG
clip,1,951,NaN,n01592084,n01592084,NaN,ILSVRC2012_val_00000837.JPEG
clip,1,952,NaN,n01592084,n01592084,NaN,ILSVRC2012_val_00002681.JPEG
clip,1,953,NaN,n01592084,n01592084,NaN,ILSVRC2012_val_00005224.JPEG
clip,1,954,NaN,n01592084,n01592084,NaN,ILSVRC2012_val_00007912.JPEG
clip,1,955,NaN,n01592084,n01592084,NaN,ILSVRC2012_val_00009374.JPEG
clip,1,956,NaN,n01592084,n01592084,NaN,ILSVRC2012_val_00010128.JPEG
clip,1,957,NaN,n01592084,n01592084,NaN,ILSVRC2012_val_00010861.JPEG
clip,1,958,NaN,n01592084,n01592084,NaN,ILSVRC2012_val_00012836.JPEG
clip,1,959,NaN,n01592084,n01592084,NaN,ILSVRC2012_val_00015269.JPEG
clip,1,960,NaN,n01592084,n01592084,NaN,ILSVRC2012_val_00017017.JPEG
clip,1,961,NaN,n01592084,n01592084,NaN,ILSVRC2012_val_00017756.JPEG
clip,1,962,NaN,n01592084,n01592084,NaN,ILSVRC2012_val_00017916.JPEG
clip,1,963,NaN,n01592084,n01592084,NaN,ILSVRC2012_val_00017976.JPEG
clip,1,964,NaN,n01592084,n01592084,NaN,ILSVRC2012_val_00018167.JPEG
clip,1,965,NaN,n01592084,n01592084,NaN,ILSVRC2012_val_00018280.JPEG
clip,1,966,NaN,n01592084,n01592084,NaN,ILSVRC2012_val_00019788.JPEG
clip,1,967,NaN,n01592084,n01592084,NaN,ILSVRC2012_val_00020469.JPEG
clip,1,968,NaN,n01592084,n01592084,NaN,ILSVRC2012_val_00020660.JPEG
clip,1,969,NaN,n01592084,n01592084,NaN,ILSVRC2012_val_00023907.JPEG
clip,1,970,NaN,n01592084,n01592084,NaN,ILSVRC2012_val_00024012.JPEG
clip,1,971,NaN,n01592084,n01592084,NaN,ILSVRC2012_val_00024353.JPEG
clip,1,972,NaN,n01592084,n01592084,NaN,ILSVRC2012_val_00025476.JPEG
clip,1,973,NaN,n01560419,n01592084,NaN,ILSVRC2012_val_00025577.JPEG
clip,1,974,NaN,n01592084,n01592084,NaN,ILSVRC2012_val_00025692.JPEG
clip,1,975,NaN,n01592084,n01592084,NaN,ILSVRC2012_val_00029441.JPEG
clip,1,976,NaN,n01592084,n01592084,NaN,ILSVRC2012_val_00032102.JPEG
clip,1,977,NaN,n01592084,n01592084,NaN,ILSVRC2012_val_00032788.JPEG
clip,1,978,NaN,n01592084,n01592084,NaN,ILSVRC2012_val_00033372.JPEG
clip,1,979,NaN,n01592084,n01592084,NaN,ILSVRC2012_val_00034095.JPEG
clip,1,980,NaN,n01592084,n01592084,NaN,ILSVRC2012_val_00034242.JPEG
clip,1,981,NaN,n01592084,n01592084,NaN,ILSVRC2012_val_00035303.JPEG
clip,1,982,NaN,n01592084,n01592084,NaN,ILSVRC2012_val_00035947.JPEG
clip,1,983,NaN,n01592084,n01592084,NaN,ILSVRC2012_val_00036534.JPEG
clip,1,984,NaN,n01592084,n01592084,NaN,ILSVRC2012_val_00036812.JPEG
clip,1,985,NaN,n01592084,n01592084,NaN,ILSVRC2012_val_00037328.JPEG
clip,1,986,NaN,n01592084,n01592084,NaN,ILSVRC2012_val_00037420.JPEG
clip,1,987,NaN,n01592084,n01592084,NaN,ILSVRC2012_val_00038192.JPEG
clip,1,988,NaN,n01592084,n01592084,NaN,ILSVRC2012_val_00038557.JPEG
clip,1,989,NaN,n01592084,n01592084,NaN,ILSVRC2012_val_00039466.JPEG
clip,1,990,NaN,n01592084,n01592084,NaN,ILSVRC2012_val_00040783.JPEG
clip,1,991,NaN,n01592084,n01592084,NaN,ILSVRC2012_val_00042246.JPEG
clip,1,992,NaN,n01592084,n01592084,NaN,ILSVRC2012_val_00042506.JPEG
clip,1,993,NaN,n01592084,n01592084,NaN,ILSVRC2012_val_00043585.JPEG
clip,1,994,NaN,n01592084,n01592084,NaN,ILSVRC2012_val_00044038.JPEG
clip,1,995,NaN,n01592084,n01592084,NaN,ILSVRC2012_val_00045198.JPEG
clip,1,996,NaN,n01592084,n01592084,NaN,ILSVRC2012_val_00045568.JPEG
clip,1,997,NaN,n01592084,n01592084,NaN,ILSVRC2012_val_00046415.JPEG
clip,1,998,NaN,n01592084,n01592084,NaN,ILSVRC2012_val_00046422.JPEG
clip,1,999,NaN,n01592084,n01592084,NaN,ILSVRC2012_val_00048107.JPEG
clip,1,1000,NaN,n01592084,n01592084,NaN,ILSVRC2012_val_00049141.JPEG
clip,1,1001,NaN,n01601694,n01601694,NaN,ILSVRC2012_val_00000962.JPEG
clip,1,1002,NaN,n01601694,n01601694,NaN,ILSVRC2012_val_00002872.JPEG
clip,1,1003,NaN,n01601694,n01601694,NaN,ILSVRC2012_val_00005576.JPEG
clip,1,1004,NaN,n01601694,n01601694,NaN,ILSVRC2012_val_00006907.JPEG
clip,1,1005,NaN,n01601694,n01601694,NaN,ILSVRC2012_val_00008495.JPEG
clip,1,1006,NaN,n02027492,n01601694,NaN,ILSVRC2012_val_00008510.JPEG
clip,1,1007,NaN,n01601694,n01601694,NaN,ILSVRC2012_val_00008816.JPEG
clip,1,1008,NaN,n01601694,n01601694,NaN,ILSVRC2012_val_00009401.JPEG
clip,1,1009,NaN,n01601694,n01601694,NaN,ILSVRC2012_val_00009597.JPEG
clip,1,1010,NaN,n01601694,n01601694,NaN,ILSVRC2012_val_00010880.JPEG
clip,1,1011,NaN,n01601694,n01601694,NaN,ILSVRC2012_val_00011519.JPEG
clip,1,1012,NaN,n01828970,n01601694,NaN,ILSVRC2012_val_00012797.JPEG
clip,1,1013,NaN,n01601694,n01601694,NaN,ILSVRC2012_val_00013223.JPEG
clip,1,1014,NaN,n01601694,n01601694,NaN,ILSVRC2012_val_00013955.JPEG
clip,1,1015,NaN,n01592084,n01601694,NaN,ILSVRC2012_val_00014673.JPEG
clip,1,1016,NaN,n01601694,n01601694,NaN,ILSVRC2012_val_00015264.JPEG
clip,1,1017,NaN,n01560419,n01601694,NaN,ILSVRC2012_val_00015922.JPEG
clip,1,1018,NaN,n02027492,n01601694,NaN,ILSVRC2012_val_00016909.JPEG
clip,1,1019,NaN,n01601694,n01601694,NaN,ILSVRC2012_val_00017028.JPEG
clip,1,1020,NaN,n01601694,n01601694,NaN,ILSVRC2012_val_00019034.JPEG
clip,1,1021,NaN,n01601694,n01601694,NaN,ILSVRC2012_val_00020349.JPEG
clip,1,1022,NaN,n01601694,n01601694,NaN,ILSVRC2012_val_00020730.JPEG
clip,1,1023,NaN,n02025239,n01601694,NaN,ILSVRC2012_val_00021656.JPEG
clip,1,1024,NaN,n01582220,n01601694,NaN,ILSVRC2012_val_00022972.JPEG
clip,1,1025,NaN,n01601694,n01601694,NaN,ILSVRC2012_val_00023895.JPEG
clip,1,1026,NaN,n01601694,n01601694,NaN,ILSVRC2012_val_00024059.JPEG
clip,1,1027,NaN,n01601694,n01601694,NaN,ILSVRC2012_val_00024643.JPEG
clip,1,1028,NaN,n01601694,n01601694,NaN,ILSVRC2012_val_00025214.JPEG
clip,1,1029,NaN,n01601694,n01601694,NaN,ILSVRC2012_val_00025524.JPEG
clip,1,1030,NaN,n01843065,n01601694,NaN,ILSVRC2012_val_00026023.JPEG
clip,1,1031,NaN,n01601694,n01601694,NaN,ILSVRC2012_val_00028099.JPEG
clip,1,1032,NaN,n01601694,n01601694,NaN,ILSVRC2012_val_00028181.JPEG
clip,1,1033,NaN,n01601694,n01601694,NaN,ILSVRC2012_val_00029430.JPEG
clip,1,1034,NaN,n01601694,n01601694,NaN,ILSVRC2012_val_00030011.JPEG
clip,1,1035,NaN,n01601694,n01601694,NaN,ILSVRC2012_val_00031973.JPEG
clip,1,1036,NaN,n01601694,n01601694,NaN,ILSVRC2012_val_00033770.JPEG
clip,1,1037,NaN,n01601694,n01601694,NaN,ILSVRC2012_val_00034929.JPEG
clip,1,1038,NaN,n01601694,n01601694,NaN,ILSVRC2012_val_00036819.JPEG
clip,1,1039,NaN,n01530575,n01601694,NaN,ILSVRC2012_val_00038159.JPEG
clip,1,1040,NaN,n01601694,n01601694,NaN,ILSVRC2012_val_00039648.JPEG
clip,1,1041,NaN,n01601694,n01601694,NaN,ILSVRC2012_val_00040903.JPEG
clip,1,1042,NaN,n01601694,n01601694,NaN,ILSVRC2012_val_00043566.JPEG
clip,1,1043,NaN,n01601694,n01601694,NaN,ILSVRC2012_val_00045581.JPEG
clip,1,1044,NaN,n01601694,n01601694,NaN,ILSVRC2012_val_00045873.JPEG
clip,1,1045,NaN,n01601694,n01601694,NaN,ILSVRC2012_val_00047121.JPEG
clip,1,1046,NaN,n01601694,n01601694,NaN,ILSVRC2012_val_00047626.JPEG
clip,1,1047,NaN,n01601694,n01601694,NaN,ILSVRC2012_val_00047732.JPEG
clip,1,1048,NaN,n01601694,n01601694,NaN,ILSVRC2012_val_00048552.JPEG
clip,1,1049,NaN,n01601694,n01601694,NaN,ILSVRC2012_val_00049669.JPEG
clip,1,1050,NaN,n01843065,n01601694,NaN,ILSVRC2012_val_00049775.JPEG
clip,1,1051,NaN,n01608432,n01608432,NaN,ILSVRC2012_val_00000073.JPEG
clip,1,1052,NaN,n01608432,n01608432,NaN,ILSVRC2012_val_00000328.JPEG
clip,1,1053,NaN,n01608432,n01608432,NaN,ILSVRC2012_val_00000739.JPEG
clip,1,1054,NaN,n01608432,n01608432,NaN,ILSVRC2012_val_00000888.JPEG
clip,1,1055,NaN,n01608432,n01608432,NaN,ILSVRC2012_val_00001218.JPEG
clip,1,1056,NaN,n01824575,n01608432,NaN,ILSVRC2012_val_00001488.JPEG
clip,1,1057,NaN,n01608432,n01608432,NaN,ILSVRC2012_val_00001813.JPEG
clip,1,1058,NaN,n01614925,n01608432,NaN,ILSVRC2012_val_00002444.JPEG
clip,1,1059,NaN,n01608432,n01608432,NaN,ILSVRC2012_val_00004381.JPEG
clip,1,1060,NaN,n01608432,n01608432,NaN,ILSVRC2012_val_00006203.JPEG
clip,1,1061,NaN,n01829413,n01608432,NaN,ILSVRC2012_val_00013095.JPEG
clip,1,1062,NaN,n01608432,n01608432,NaN,ILSVRC2012_val_00013166.JPEG
clip,1,1063,NaN,n01608432,n01608432,NaN,ILSVRC2012_val_00013393.JPEG
clip,1,1064,NaN,n01608432,n01608432,NaN,ILSVRC2012_val_00013432.JPEG
clip,1,1065,NaN,n01614925,n01608432,NaN,ILSVRC2012_val_00014196.JPEG
clip,1,1066,NaN,n01608432,n01608432,NaN,ILSVRC2012_val_00015040.JPEG
clip,1,1067,NaN,n01608432,n01608432,NaN,ILSVRC2012_val_00015107.JPEG
clip,1,1068,NaN,n01614925,n01608432,NaN,ILSVRC2012_val_00015746.JPEG
clip,1,1069,NaN,n01608432,n01608432,NaN,ILSVRC2012_val_00018796.JPEG
clip,1,1070,NaN,n01608432,n01608432,NaN,ILSVRC2012_val_00020694.JPEG
clip,1,1071,NaN,n01608432,n01608432,NaN,ILSVRC2012_val_00020710.JPEG
clip,1,1072,NaN,n01608432,n01608432,NaN,ILSVRC2012_val_00021056.JPEG
clip,1,1073,NaN,n01614925,n01608432,NaN,ILSVRC2012_val_00023128.JPEG
clip,1,1074,NaN,n01608432,n01608432,NaN,ILSVRC2012_val_00025047.JPEG
clip,1,1075,NaN,n01819313,n01608432,NaN,ILSVRC2012_val_00025636.JPEG
clip,1,1076,NaN,n01608432,n01608432,NaN,ILSVRC2012_val_00026444.JPEG
clip,1,1077,NaN,n01608432,n01608432,NaN,ILSVRC2012_val_00027693.JPEG
clip,1,1078,NaN,n01608432,n01608432,NaN,ILSVRC2012_val_00028139.JPEG
clip,1,1079,NaN,n01608432,n01608432,NaN,ILSVRC2012_val_00028521.JPEG
clip,1,1080,NaN,n01608432,n01608432,NaN,ILSVRC2012_val_00030094.JPEG
clip,1,1081,NaN,n01608432,n01608432,NaN,ILSVRC2012_val_00030292.JPEG
clip,1,1082,NaN,n01592084,n01608432,NaN,ILSVRC2012_val_00030483.JPEG
clip,1,1083,NaN,n01608432,n01608432,NaN,ILSVRC2012_val_00031676.JPEG
clip,1,1084,NaN,n01608432,n01608432,NaN,ILSVRC2012_val_00033214.JPEG
clip,1,1085,NaN,n01819313,n01608432,NaN,ILSVRC2012_val_00033433.JPEG
clip,1,1086,NaN,n01608432,n01608432,NaN,ILSVRC2012_val_00033771.JPEG
clip,1,1087,NaN,n01608432,n01608432,NaN,ILSVRC2012_val_00036125.JPEG
clip,1,1088,NaN,n01608432,n01608432,NaN,ILSVRC2012_val_00036356.JPEG
clip,1,1089,NaN,n01608432,n01608432,NaN,ILSVRC2012_val_00037878.JPEG
clip,1,1090,NaN,n01608432,n01608432,NaN,ILSVRC2012_val_00038111.JPEG
clip,1,1091,NaN,n01608432,n01608432,NaN,ILSVRC2012_val_00038250.JPEG
clip,1,1092,NaN,n01608432,n01608432,NaN,ILSVRC2012_val_00043085.JPEG
clip,1,1093,NaN,n01608432,n01608432,NaN,ILSVRC2012_val_00045690.JPEG
clip,1,1094,NaN,n01608432,n01608432,NaN,ILSVRC2012_val_00045746.JPEG
clip,1,1095,NaN,n01608432,n01608432,NaN,ILSVRC2012_val_00046092.JPEG
clip,1,1096,NaN,n01608432,n01608432,NaN,ILSVRC2012_val_00046308.JPEG
clip,1,1097,NaN,n01608432,n01608432,NaN,ILSVRC2012_val_00046733.JPEG
clip,1,1098,NaN,n01608432,n01608432,NaN,ILSVRC2012_val_00046948.JPEG
clip,1,1099,NaN,n01608432,n01608432,NaN,ILSVRC2012_val_00047191.JPEG
clip,1,1100,NaN,n01608432,n01608432,NaN,ILSVRC2012_val_00047637.JPEG
clip,1,1101,NaN,n01608432,n01614925,NaN,ILSVRC2012_val_00000128.JPEG
clip,1,1102,NaN,n01614925,n01614925,NaN,ILSVRC2012_val_00002031.JPEG
clip,1,1103,NaN,n01614925,n01614925,NaN,ILSVRC2012_val_00003330.JPEG
clip,1,1104,NaN,n01614925,n01614925,NaN,ILSVRC2012_val_00006334.JPEG
clip,1,1105,NaN,n01614925,n01614925,NaN,ILSVRC2012_val_00006571.JPEG
clip,1,1106,NaN,n01614925,n01614925,NaN,ILSVRC2012_val_00007712.JPEG
clip,1,1107,NaN,n01614925,n01614925,NaN,ILSVRC2012_val_00008151.JPEG
clip,1,1108,NaN,n01614925,n01614925,NaN,ILSVRC2012_val_00008481.JPEG
clip,1,1109,NaN,n01614925,n01614925,NaN,ILSVRC2012_val_00010889.JPEG
clip,1,1110,NaN,n01614925,n01614925,NaN,ILSVRC2012_val_00013265.JPEG
clip,1,1111,NaN,n01614925,n01614925,NaN,ILSVRC2012_val_00013702.JPEG
clip,1,1112,NaN,n01614925,n01614925,NaN,ILSVRC2012_val_00014007.JPEG
clip,1,1113,NaN,n01614925,n01614925,NaN,ILSVRC2012_val_00014082.JPEG
clip,1,1114,NaN,n01614925,n01614925,NaN,ILSVRC2012_val_00014192.JPEG
clip,1,1115,NaN,n01614925,n01614925,NaN,ILSVRC2012_val_00015516.JPEG
clip,1,1116,NaN,n01614925,n01614925,NaN,ILSVRC2012_val_00017994.JPEG
clip,1,1117,NaN,n01614925,n01614925,NaN,ILSVRC2012_val_00020052.JPEG
clip,1,1118,NaN,n01614925,n01614925,NaN,ILSVRC2012_val_00021015.JPEG
clip,1,1119,NaN,n01614925,n01614925,NaN,ILSVRC2012_val_00021104.JPEG
clip,1,1120,NaN,n01614925,n01614925,NaN,ILSVRC2012_val_00022597.JPEG
clip,1,1121,NaN,n01614925,n01614925,NaN,ILSVRC2012_val_00026050.JPEG
clip,1,1122,NaN,n01614925,n01614925,NaN,ILSVRC2012_val_00026614.JPEG
clip,1,1123,NaN,n01614925,n01614925,NaN,ILSVRC2012_val_00026707.JPEG
clip,1,1124,NaN,n01614925,n01614925,NaN,ILSVRC2012_val_00027079.JPEG
clip,1,1125,NaN,n01614925,n01614925,NaN,ILSVRC2012_val_00027196.JPEG
clip,1,1126,NaN,n01614925,n01614925,NaN,ILSVRC2012_val_00027570.JPEG
clip,1,1127,NaN,n01614925,n01614925,NaN,ILSVRC2012_val_00031465.JPEG
clip,1,1128,NaN,n01614925,n01614925,NaN,ILSVRC2012_val_00032320.JPEG
clip,1,1129,NaN,n01614925,n01614925,NaN,ILSVRC2012_val_00033435.JPEG
clip,1,1130,NaN,n01614925,n01614925,NaN,ILSVRC2012_val_00034168.JPEG
clip,1,1131,NaN,n01614925,n01614925,NaN,ILSVRC2012_val_00037795.JPEG
clip,1,1132,NaN,n01614925,n01614925,NaN,ILSVRC2012_val_00038636.JPEG
clip,1,1133,NaN,n01614925,n01614925,NaN,ILSVRC2012_val_00038804.JPEG
clip,1,1134,NaN,n01614925,n01614925,NaN,ILSVRC2012_val_00039605.JPEG
clip,1,1135,NaN,n01614925,n01614925,NaN,ILSVRC2012_val_00039859.JPEG
clip,1,1136,NaN,n01614925,n01614925,NaN,ILSVRC2012_val_00040158.JPEG
clip,1,1137,NaN,n01614925,n01614925,NaN,ILSVRC2012_val_00040242.JPEG
clip,1,1138,NaN,n01614925,n01614925,NaN,ILSVRC2012_val_00040404.JPEG
clip,1,1139,NaN,n01614925,n01614925,NaN,ILSVRC2012_val_00040474.JPEG
clip,1,1140,NaN,n01614925,n01614925,NaN,ILSVRC2012_val_00040608.JPEG
clip,1,1141,NaN,n01614925,n01614925,NaN,ILSVRC2012_val_00040970.JPEG
clip,1,1142,NaN,n01614925,n01614925,NaN,ILSVRC2012_val_00042380.JPEG
clip,1,1143,NaN,n01614925,n01614925,NaN,ILSVRC2012_val_00043779.JPEG
clip,1,1144,NaN,n01614925,n01614925,NaN,ILSVRC2012_val_00044921.JPEG
clip,1,1145,NaN,n01614925,n01614925,NaN,ILSVRC2012_val_00045612.JPEG
clip,1,1146,NaN,n01614925,n01614925,NaN,ILSVRC2012_val_00046564.JPEG
clip,1,1147,NaN,n01614925,n01614925,NaN,ILSVRC2012_val_00046632.JPEG
clip,1,1148,NaN,n01614925,n01614925,NaN,ILSVRC2012_val_00048960.JPEG
clip,1,1149,NaN,n01614925,n01614925,NaN,ILSVRC2012_val_00049531.JPEG
clip,1,1150,NaN,n01614925,n01614925,NaN,ILSVRC2012_val_00049899.JPEG
clip,1,1151,NaN,n01616318,n01616318,NaN,ILSVRC2012_val_00000018.JPEG
clip,1,1152,NaN,n01616318,n01616318,NaN,ILSVRC2012_val_00000025.JPEG
clip,1,1153,NaN,n01616318,n01616318,NaN,ILSVRC2012_val_00000916.JPEG
clip,1,1154,NaN,n01616318,n01616318,NaN,ILSVRC2012_val_00001391.JPEG
clip,1,1155,NaN,n01616318,n01616318,NaN,ILSVRC2012_val_00002168.JPEG
clip,1,1156,NaN,n01616318,n01616318,NaN,ILSVRC2012_val_00002387.JPEG
clip,1,1157,NaN,n01614925,n01616318,NaN,ILSVRC2012_val_00004554.JPEG
clip,1,1158,NaN,n01616318,n01616318,NaN,ILSVRC2012_val_00006213.JPEG
clip,1,1159,NaN,n01616318,n01616318,NaN,ILSVRC2012_val_00006250.JPEG
clip,1,1160,NaN,n01616318,n01616318,NaN,ILSVRC2012_val_00008819.JPEG
clip,1,1161,NaN,n01795545,n01616318,NaN,ILSVRC2012_val_00009100.JPEG
clip,1,1162,NaN,n01616318,n01616318,NaN,ILSVRC2012_val_00009119.JPEG
clip,1,1163,NaN,n01616318,n01616318,NaN,ILSVRC2012_val_00011317.JPEG
clip,1,1164,NaN,n01616318,n01616318,NaN,ILSVRC2012_val_00012178.JPEG
clip,1,1165,NaN,n01616318,n01616318,NaN,ILSVRC2012_val_00012615.JPEG
clip,1,1166,NaN,n01614925,n01616318,NaN,ILSVRC2012_val_00014220.JPEG
clip,1,1167,NaN,n01829413,n01616318,NaN,ILSVRC2012_val_00015769.JPEG
clip,1,1168,NaN,n01819313,n01616318,NaN,ILSVRC2012_val_00018092.JPEG
clip,1,1169,NaN,n01616318,n01616318,NaN,ILSVRC2012_val_00019868.JPEG
clip,1,1170,NaN,n01616318,n01616318,NaN,ILSVRC2012_val_00020743.JPEG
clip,1,1171,NaN,n01806143,n01616318,NaN,ILSVRC2012_val_00022088.JPEG
clip,1,1172,NaN,n01616318,n01616318,NaN,ILSVRC2012_val_00022165.JPEG
clip,1,1173,NaN,n01616318,n01616318,NaN,ILSVRC2012_val_00023247.JPEG
clip,1,1174,NaN,n01795545,n01616318,NaN,ILSVRC2012_val_00024514.JPEG
clip,1,1175,NaN,n01616318,n01616318,NaN,ILSVRC2012_val_00026604.JPEG
clip,1,1176,NaN,n01795545,n01616318,NaN,ILSVRC2012_val_00027588.JPEG
clip,1,1177,NaN,n01616318,n01616318,NaN,ILSVRC2012_val_00027870.JPEG
clip,1,1178,NaN,n01616318,n01616318,NaN,ILSVRC2012_val_00030090.JPEG
clip,1,1179,NaN,n01616318,n01616318,NaN,ILSVRC2012_val_00030515.JPEG
clip,1,1180,NaN,n01616318,n01616318,NaN,ILSVRC2012_val_00030618.JPEG
clip,1,1181,NaN,n01616318,n01616318,NaN,ILSVRC2012_val_00031653.JPEG
clip,1,1182,NaN,n01616318,n01616318,NaN,ILSVRC2012_val_00032389.JPEG
clip,1,1183,NaN,n01616318,n01616318,NaN,ILSVRC2012_val_00032832.JPEG
clip,1,1184,NaN,n02013706,n01616318,NaN,ILSVRC2012_val_00032889.JPEG
clip,1,1185,NaN,n01616318,n01616318,NaN,ILSVRC2012_val_00035953.JPEG
clip,1,1186,NaN,n02099267,n01616318,NaN,ILSVRC2012_val_00036388.JPEG
clip,1,1187,NaN,n01616318,n01616318,NaN,ILSVRC2012_val_00036620.JPEG
clip,1,1188,NaN,n01616318,n01616318,NaN,ILSVRC2012_val_00037071.JPEG
clip,1,1189,NaN,n01616318,n01616318,NaN,ILSVRC2012_val_00037127.JPEG
clip,1,1190,NaN,n01616318,n01616318,NaN,ILSVRC2012_val_00037259.JPEG
clip,1,1191,NaN,n01798484,n01616318,NaN,ILSVRC2012_val_00040117.JPEG
clip,1,1192,NaN,n01616318,n01616318,NaN,ILSVRC2012_val_00040205.JPEG
clip,1,1193,NaN,n01616318,n01616318,NaN,ILSVRC2012_val_00040425.JPEG
clip,1,1194,NaN,n01843383,n01616318,NaN,ILSVRC2012_val_00040614.JPEG
clip,1,1195,NaN,n01616318,n01616318,NaN,ILSVRC2012_val_00042410.JPEG
clip,1,1196,NaN,n01616318,n01616318,NaN,ILSVRC2012_val_00042788.JPEG
clip,1,1197,NaN,n01616318,n01616318,NaN,ILSVRC2012_val_00043801.JPEG
clip,1,1198,NaN,n01616318,n01616318,NaN,ILSVRC2012_val_00044797.JPEG
clip,1,1199,NaN,n01819313,n01616318,NaN,ILSVRC2012_val_00045589.JPEG
clip,1,1200,NaN,n01616318,n01616318,NaN,ILSVRC2012_val_00047350.JPEG
clip,1,1201,NaN,n01622779,n01622779,NaN,ILSVRC2012_val_00000318.JPEG
clip,1,1202,NaN,n01622779,n01622779,NaN,ILSVRC2012_val_00001213.JPEG
clip,1,1203,NaN,n01622779,n01622779,NaN,ILSVRC2012_val_00002228.JPEG
clip,1,1204,NaN,n01622779,n01622779,NaN,ILSVRC2012_val_00002511.JPEG
clip,1,1205,NaN,n01622779,n01622779,NaN,ILSVRC2012_val_00003169.JPEG
clip,1,1206,NaN,n01622779,n01622779,NaN,ILSVRC2012_val_00003892.JPEG
clip,1,1207,NaN,n01798484,n01622779,NaN,ILSVRC2012_val_00004345.JPEG
clip,1,1208,NaN,n01622779,n01622779,NaN,ILSVRC2012_val_00004859.JPEG
clip,1,1209,NaN,n01622779,n01622779,NaN,ILSVRC2012_val_00005770.JPEG
clip,1,1210,NaN,n01622779,n01622779,NaN,ILSVRC2012_val_00006472.JPEG
clip,1,1211,NaN,n01622779,n01622779,NaN,ILSVRC2012_val_00006916.JPEG
clip,1,1212,NaN,n01622779,n01622779,NaN,ILSVRC2012_val_00008049.JPEG
clip,1,1213,NaN,n01622779,n01622779,NaN,ILSVRC2012_val_00008178.JPEG
clip,1,1214,NaN,n01622779,n01622779,NaN,ILSVRC2012_val_00008209.JPEG
clip,1,1215,NaN,n01622779,n01622779,NaN,ILSVRC2012_val_00009415.JPEG
clip,1,1216,NaN,n01622779,n01622779,NaN,ILSVRC2012_val_00009842.JPEG
clip,1,1217,NaN,n01622779,n01622779,NaN,ILSVRC2012_val_00010022.JPEG
clip,1,1218,NaN,n01622779,n01622779,NaN,ILSVRC2012_val_00010457.JPEG
clip,1,1219,NaN,n01622779,n01622779,NaN,ILSVRC2012_val_00011414.JPEG
clip,1,1220,NaN,n01622779,n01622779,NaN,ILSVRC2012_val_00014982.JPEG
clip,1,1221,NaN,n01622779,n01622779,NaN,ILSVRC2012_val_00015913.JPEG
clip,1,1222,NaN,n01622779,n01622779,NaN,ILSVRC2012_val_00016292.JPEG
clip,1,1223,NaN,n01622779,n01622779,NaN,ILSVRC2012_val_00018062.JPEG
clip,1,1224,NaN,n02490219,n01622779,NaN,ILSVRC2012_val_00018660.JPEG
clip,1,1225,NaN,n01622779,n01622779,NaN,ILSVRC2012_val_00021133.JPEG
clip,1,1226,NaN,n01622779,n01622779,NaN,ILSVRC2012_val_00021335.JPEG
clip,1,1227,NaN,n01622779,n01622779,NaN,ILSVRC2012_val_00022709.JPEG
clip,1,1228,NaN,n01622779,n01622779,NaN,ILSVRC2012_val_00023030.JPEG
clip,1,1229,NaN,n01622779,n01622779,NaN,ILSVRC2012_val_00024052.JPEG
clip,1,1230,NaN,n01622779,n01622779,NaN,ILSVRC2012_val_00025523.JPEG
clip,1,1231,NaN,n01622779,n01622779,NaN,ILSVRC2012_val_00025913.JPEG
clip,1,1232,NaN,n01622779,n01622779,NaN,ILSVRC2012_val_00026579.JPEG
clip,1,1233,NaN,n01622779,n01622779,NaN,ILSVRC2012_val_00027519.JPEG
clip,1,1234,NaN,n01622779,n01622779,NaN,ILSVRC2012_val_00027627.JPEG
clip,1,1235,NaN,n01622779,n01622779,NaN,ILSVRC2012_val_00029497.JPEG
clip,1,1236,NaN,n01622779,n01622779,NaN,ILSVRC2012_val_00031144.JPEG
clip,1,1237,NaN,n01622779,n01622779,NaN,ILSVRC2012_val_00031890.JPEG
clip,1,1238,NaN,n01622779,n01622779,NaN,ILSVRC2012_val_00032875.JPEG
clip,1,1239,NaN,n01622779,n01622779,NaN,ILSVRC2012_val_00033063.JPEG
clip,1,1240,NaN,n01622779,n01622779,NaN,ILSVRC2012_val_00034405.JPEG
clip,1,1241,NaN,n01622779,n01622779,NaN,ILSVRC2012_val_00034593.JPEG
clip,1,1242,NaN,n01622779,n01622779,NaN,ILSVRC2012_val_00035098.JPEG
clip,1,1243,NaN,n01622779,n01622779,NaN,ILSVRC2012_val_00035608.JPEG
clip,1,1244,NaN,n01622779,n01622779,NaN,ILSVRC2012_val_00037606.JPEG
clip,1,1245,NaN,n01622779,n01622779,NaN,ILSVRC2012_val_00040434.JPEG
clip,1,1246,NaN,n01622779,n01622779,NaN,ILSVRC2012_val_00043466.JPEG
clip,1,1247,NaN,n01622779,n01622779,NaN,ILSVRC2012_val_00047963.JPEG
clip,1,1248,NaN,n01622779,n01622779,NaN,ILSVRC2012_val_00048175.JPEG
clip,1,1249,NaN,n01622779,n01622779,NaN,ILSVRC2012_val_00049639.JPEG
clip,1,1250,NaN,n01622779,n01622779,NaN,ILSVRC2012_val_00049990.JPEG
clip,1,1251,NaN,n01629819,n01629819,NaN,ILSVRC2012_val_00000225.JPEG
clip,1,1252,NaN,n01629819,n01629819,NaN,ILSVRC2012_val_00000890.JPEG
clip,1,1253,NaN,n01629819,n01629819,NaN,ILSVRC2012_val_00001033.JPEG
clip,1,1254,NaN,n01629819,n01629819,NaN,ILSVRC2012_val_00001667.JPEG
clip,1,1255,NaN,n01629819,n01629819,NaN,ILSVRC2012_val_00001816.JPEG
clip,1,1256,NaN,n01629819,n01629819,NaN,ILSVRC2012_val_00002883.JPEG
clip,1,1257,NaN,n01629819,n01629819,NaN,ILSVRC2012_val_00006679.JPEG
clip,1,1258,NaN,n01629819,n01629819,NaN,ILSVRC2012_val_00008542.JPEG
clip,1,1259,NaN,n01629819,n01629819,NaN,ILSVRC2012_val_00009616.JPEG
clip,1,1260,NaN,n01629819,n01629819,NaN,ILSVRC2012_val_00009674.JPEG
clip,1,1261,NaN,n01629819,n01629819,NaN,ILSVRC2012_val_00009938.JPEG
clip,1,1262,NaN,n01629819,n01629819,NaN,ILSVRC2012_val_00010116.JPEG
clip,1,1263,NaN,n01629819,n01629819,NaN,ILSVRC2012_val_00010817.JPEG
clip,1,1264,NaN,n01629819,n01629819,NaN,ILSVRC2012_val_00011278.JPEG
clip,1,1265,NaN,n01629819,n01629819,NaN,ILSVRC2012_val_00011661.JPEG
clip,1,1266,NaN,n01629819,n01629819,NaN,ILSVRC2012_val_00012588.JPEG
clip,1,1267,NaN,n01632458,n01629819,NaN,ILSVRC2012_val_00013899.JPEG
clip,1,1268,NaN,n01629819,n01629819,NaN,ILSVRC2012_val_00014076.JPEG
clip,1,1269,NaN,n01629819,n01629819,NaN,ILSVRC2012_val_00014232.JPEG
clip,1,1270,NaN,n01629819,n01629819,NaN,ILSVRC2012_val_00016747.JPEG
clip,1,1271,NaN,n01629819,n01629819,NaN,ILSVRC2012_val_00017623.JPEG
clip,1,1272,NaN,n01629819,n01629819,NaN,ILSVRC2012_val_00018645.JPEG
clip,1,1273,NaN,n01629819,n01629819,NaN,ILSVRC2012_val_00019308.JPEG
clip,1,1274,NaN,n01629819,n01629819,NaN,ILSVRC2012_val_00019630.JPEG
clip,1,1275,NaN,n01629819,n01629819,NaN,ILSVRC2012_val_00022935.JPEG
clip,1,1276,NaN,n01629819,n01629819,NaN,ILSVRC2012_val_00023201.JPEG
clip,1,1277,NaN,n01629819,n01629819,NaN,ILSVRC2012_val_00028323.JPEG
clip,1,1278,NaN,n01629819,n01629819,NaN,ILSVRC2012_val_00028489.JPEG
clip,1,1279,NaN,n01629819,n01629819,NaN,ILSVRC2012_val_00028565.JPEG
clip,1,1280,NaN,n01629819,n01629819,NaN,ILSVRC2012_val_00029460.JPEG
clip,1,1281,NaN,n01629819,n01629819,NaN,ILSVRC2012_val_00029763.JPEG
clip,1,1282,NaN,n01629819,n01629819,NaN,ILSVRC2012_val_00030300.JPEG
clip,1,1283,NaN,n01629819,n01629819,NaN,ILSVRC2012_val_00033081.JPEG
clip,1,1284,NaN,n01629819,n01629819,NaN,ILSVRC2012_val_00033575.JPEG
clip,1,1285,NaN,n01629819,n01629819,NaN,ILSVRC2012_val_00034499.JPEG
clip,1,1286,NaN,n01629819,n01629819,NaN,ILSVRC2012_val_00039753.JPEG
clip,1,1287,NaN,n01629819,n01629819,NaN,ILSVRC2012_val_00040470.JPEG
clip,1,1288,NaN,n01629819,n01629819,NaN,ILSVRC2012_val_00040820.JPEG
clip,1,1289,NaN,n01629819,n01629819,NaN,ILSVRC2012_val_00045120.JPEG
clip,1,1290,NaN,n01629819,n01629819,NaN,ILSVRC2012_val_00046119.JPEG
clip,1,1291,NaN,n01629819,n01629819,NaN,ILSVRC2012_val_00046162.JPEG
clip,1,1292,NaN,n01629819,n01629819,NaN,ILSVRC2012_val_00046243.JPEG
clip,1,1293,NaN,n01629819,n01629819,NaN,ILSVRC2012_val_00046756.JPEG
clip,1,1294,NaN,n01629819,n01629819,NaN,ILSVRC2012_val_00046941.JPEG
clip,1,1295,NaN,n01632458,n01629819,NaN,ILSVRC2012_val_00046985.JPEG
clip,1,1296,NaN,n01629819,n01629819,NaN,ILSVRC2012_val_00048445.JPEG
clip,1,1297,NaN,n01629819,n01629819,NaN,ILSVRC2012_val_00048463.JPEG
clip,1,1298,NaN,n01629819,n01629819,NaN,ILSVRC2012_val_00049065.JPEG
clip,1,1299,NaN,n01629819,n01629819,NaN,ILSVRC2012_val_00049244.JPEG
clip,1,1300,NaN,n01629819,n01629819,NaN,ILSVRC2012_val_00049898.JPEG
clip,1,1301,NaN,n01632777,n01630670,NaN,ILSVRC2012_val_00000498.JPEG
clip,1,1302,NaN,n01632458,n01630670,NaN,ILSVRC2012_val_00002774.JPEG
clip,1,1303,NaN,n01632777,n01630670,NaN,ILSVRC2012_val_00003189.JPEG
clip,1,1304,NaN,n01630670,n01630670,NaN,ILSVRC2012_val_00003702.JPEG
clip,1,1305,NaN,n01631663,n01630670,NaN,ILSVRC2012_val_00005698.JPEG
clip,1,1306,NaN,n01632458,n01630670,NaN,ILSVRC2012_val_00005868.JPEG
clip,1,1307,NaN,n01631663,n01630670,NaN,ILSVRC2012_val_00006331.JPEG
clip,1,1308,NaN,n01629819,n01630670,NaN,ILSVRC2012_val_00006582.JPEG
clip,1,1309,NaN,n01631663,n01630670,NaN,ILSVRC2012_val_00006844.JPEG
clip,1,1310,NaN,n01630670,n01630670,NaN,ILSVRC2012_val_00007257.JPEG
clip,1,1311,NaN,n01631663,n01630670,NaN,ILSVRC2012_val_00007288.JPEG
clip,1,1312,NaN,n01630670,n01630670,NaN,ILSVRC2012_val_00007528.JPEG
clip,1,1313,NaN,n01631663,n01630670,NaN,ILSVRC2012_val_00007561.JPEG
clip,1,1314,NaN,n01632458,n01630670,NaN,ILSVRC2012_val_00007904.JPEG
clip,1,1315,NaN,n01630670,n01630670,NaN,ILSVRC2012_val_00008249.JPEG
clip,1,1316,NaN,n01630670,n01630670,NaN,ILSVRC2012_val_00009000.JPEG
clip,1,1317,NaN,n01629819,n01630670,NaN,ILSVRC2012_val_00009670.JPEG
clip,1,1318,NaN,n01630670,n01630670,NaN,ILSVRC2012_val_00011650.JPEG
clip,1,1319,NaN,n01632458,n01630670,NaN,ILSVRC2012_val_00015274.JPEG
clip,1,1320,NaN,n01632458,n01630670,NaN,ILSVRC2012_val_00016183.JPEG
clip,1,1321,NaN,n01630670,n01630670,NaN,ILSVRC2012_val_00016422.JPEG
clip,1,1322,NaN,n02229544,n01630670,NaN,ILSVRC2012_val_00016695.JPEG
clip,1,1323,NaN,n01632458,n01630670,NaN,ILSVRC2012_val_00019780.JPEG
clip,1,1324,NaN,n01629819,n01630670,NaN,ILSVRC2012_val_00020393.JPEG
clip,1,1325,NaN,n01630670,n01630670,NaN,ILSVRC2012_val_00020696.JPEG
clip,1,1326,NaN,n01632458,n01630670,NaN,ILSVRC2012_val_00021017.JPEG
clip,1,1327,NaN,n01630670,n01630670,NaN,ILSVRC2012_val_00021083.JPEG
clip,1,1328,NaN,n01630670,n01630670,NaN,ILSVRC2012_val_00023488.JPEG
clip,1,1329,NaN,n01629819,n01630670,NaN,ILSVRC2012_val_00023932.JPEG
clip,1,1330,NaN,n01685808,n01630670,NaN,ILSVRC2012_val_00026773.JPEG
clip,1,1331,NaN,n01630670,n01630670,NaN,ILSVRC2012_val_00027269.JPEG
clip,1,1332,NaN,n01630670,n01630670,NaN,ILSVRC2012_val_00029511.JPEG
clip,1,1333,NaN,n01629819,n01630670,NaN,ILSVRC2012_val_00029854.JPEG
clip,1,1334,NaN,n01632458,n01630670,NaN,ILSVRC2012_val_00031919.JPEG
clip,1,1335,NaN,n01630670,n01630670,NaN,ILSVRC2012_val_00032171.JPEG
clip,1,1336,NaN,n01630670,n01630670,NaN,ILSVRC2012_val_00032864.JPEG
clip,1,1337,NaN,n01630670,n01630670,NaN,ILSVRC2012_val_00033261.JPEG
clip,1,1338,NaN,n01630670,n01630670,NaN,ILSVRC2012_val_00034124.JPEG
clip,1,1339,NaN,n01630670,n01630670,NaN,ILSVRC2012_val_00038449.JPEG
clip,1,1340,NaN,n01632458,n01630670,NaN,ILSVRC2012_val_00038742.JPEG
clip,1,1341,NaN,n01630670,n01630670,NaN,ILSVRC2012_val_00040174.JPEG
clip,1,1342,NaN,n01630670,n01630670,NaN,ILSVRC2012_val_00043049.JPEG
clip,1,1343,NaN,n01631663,n01630670,NaN,ILSVRC2012_val_00045101.JPEG
clip,1,1344,NaN,n01630670,n01630670,NaN,ILSVRC2012_val_00045451.JPEG
clip,1,1345,NaN,n01630670,n01630670,NaN,ILSVRC2012_val_00046430.JPEG
clip,1,1346,NaN,n02641379,n01630670,NaN,ILSVRC2012_val_00047713.JPEG
clip,1,1347,NaN,n01632458,n01630670,NaN,ILSVRC2012_val_00048046.JPEG
clip,1,1348,NaN,n01688243,n01630670,NaN,ILSVRC2012_val_00048295.JPEG
clip,1,1349,NaN,n01632777,n01630670,NaN,ILSVRC2012_val_00049350.JPEG
clip,1,1350,NaN,n01630670,n01630670,NaN,ILSVRC2012_val_00049997.JPEG
clip,1,1351,NaN,n01631663,n01631663,NaN,ILSVRC2012_val_00000258.JPEG
clip,1,1352,NaN,n01629819,n01631663,NaN,ILSVRC2012_val_00000276.JPEG
clip,1,1353,NaN,n01631663,n01631663,NaN,ILSVRC2012_val_00000807.JPEG
clip,1,1354,NaN,n01631663,n01631663,NaN,ILSVRC2012_val_00001010.JPEG
clip,1,1355,NaN,n01630670,n01631663,NaN,ILSVRC2012_val_00001728.JPEG
clip,1,1356,NaN,n01630670,n01631663,NaN,ILSVRC2012_val_00002746.JPEG
clip,1,1357,NaN,n02877765,n01631663,NaN,ILSVRC2012_val_00003214.JPEG
clip,1,1358,NaN,n01630670,n01631663,NaN,ILSVRC2012_val_00006149.JPEG
clip,1,1359,NaN,n01630670,n01631663,NaN,ILSVRC2012_val_00006319.JPEG
clip,1,1360,NaN,n01630670,n01631663,NaN,ILSVRC2012_val_00006737.JPEG
clip,1,1361,NaN,n01629819,n01631663,NaN,ILSVRC2012_val_00007998.JPEG
clip,1,1362,NaN,n01630670,n01631663,NaN,ILSVRC2012_val_00008613.JPEG
clip,1,1363,NaN,n01630670,n01631663,NaN,ILSVRC2012_val_00009677.JPEG
clip,1,1364,NaN,n01630670,n01631663,NaN,ILSVRC2012_val_00010254.JPEG
clip,1,1365,NaN,n01630670,n01631663,NaN,ILSVRC2012_val_00011131.JPEG
clip,1,1366,NaN,n01631663,n01631663,NaN,ILSVRC2012_val_00011416.JPEG
clip,1,1367,NaN,n01630670,n01631663,NaN,ILSVRC2012_val_00011688.JPEG
clip,1,1368,NaN,n01631663,n01631663,NaN,ILSVRC2012_val_00012441.JPEG
clip,1,1369,NaN,n01630670,n01631663,NaN,ILSVRC2012_val_00012765.JPEG
clip,1,1370,NaN,n01630670,n01631663,NaN,ILSVRC2012_val_00013174.JPEG
clip,1,1371,NaN,n01629819,n01631663,NaN,ILSVRC2012_val_00014009.JPEG
clip,1,1372,NaN,n01629819,n01631663,NaN,ILSVRC2012_val_00016818.JPEG
clip,1,1373,NaN,n01630670,n01631663,NaN,ILSVRC2012_val_00016864.JPEG
clip,1,1374,NaN,n01629819,n01631663,NaN,ILSVRC2012_val_00017185.JPEG
clip,1,1375,NaN,n01630670,n01631663,NaN,ILSVRC2012_val_00019116.JPEG
clip,1,1376,NaN,n01630670,n01631663,NaN,ILSVRC2012_val_00022134.JPEG
clip,1,1377,NaN,n01630670,n01631663,NaN,ILSVRC2012_val_00022787.JPEG
clip,1,1378,NaN,n01630670,n01631663,NaN,ILSVRC2012_val_00023450.JPEG
clip,1,1379,NaN,n01630670,n01631663,NaN,ILSVRC2012_val_00026016.JPEG
clip,1,1380,NaN,n01685808,n01631663,NaN,ILSVRC2012_val_00027028.JPEG
clip,1,1381,NaN,n01630670,n01631663,NaN,ILSVRC2012_val_00028601.JPEG
clip,1,1382,NaN,n01631663,n01631663,NaN,ILSVRC2012_val_00029622.JPEG
clip,1,1383,NaN,n01631663,n01631663,NaN,ILSVRC2012_val_00031577.JPEG
clip,1,1384,NaN,n01630670,n01631663,NaN,ILSVRC2012_val_00032323.JPEG
clip,1,1385,NaN,n01630670,n01631663,NaN,ILSVRC2012_val_00032578.JPEG
clip,1,1386,NaN,n01685808,n01631663,NaN,ILSVRC2012_val_00033437.JPEG
clip,1,1387,NaN,n01630670,n01631663,NaN,ILSVRC2012_val_00033492.JPEG
clip,1,1388,NaN,n01630670,n01631663,NaN,ILSVRC2012_val_00033866.JPEG
clip,1,1389,NaN,n01630670,n01631663,NaN,ILSVRC2012_val_00035093.JPEG
clip,1,1390,NaN,n01630670,n01631663,NaN,ILSVRC2012_val_00035305.JPEG
clip,1,1391,NaN,n01631663,n01631663,NaN,ILSVRC2012_val_00035450.JPEG
clip,1,1392,NaN,n01630670,n01631663,NaN,ILSVRC2012_val_00037037.JPEG
clip,1,1393,NaN,n01630670,n01631663,NaN,ILSVRC2012_val_00038658.JPEG
clip,1,1394,NaN,n01630670,n01631663,NaN,ILSVRC2012_val_00040592.JPEG
clip,1,1395,NaN,n01630670,n01631663,NaN,ILSVRC2012_val_00040981.JPEG
clip,1,1396,NaN,n01630670,n01631663,NaN,ILSVRC2012_val_00041540.JPEG
clip,1,1397,NaN,n01630670,n01631663,NaN,ILSVRC2012_val_00043003.JPEG
clip,1,1398,NaN,n01631663,n01631663,NaN,ILSVRC2012_val_00043111.JPEG
clip,1,1399,NaN,n01631663,n01631663,NaN,ILSVRC2012_val_00044852.JPEG
clip,1,1400,NaN,n01629819,n01631663,NaN,ILSVRC2012_val_00046289.JPEG
clip,1,1401,NaN,n01632458,n01632458,NaN,ILSVRC2012_val_00000088.JPEG
clip,1,1402,NaN,n01632458,n01632458,NaN,ILSVRC2012_val_00001131.JPEG
clip,1,1403,NaN,n01631663,n01632458,NaN,ILSVRC2012_val_00003157.JPEG
clip,1,1404,NaN,n01632458,n01632458,NaN,ILSVRC2012_val_00003350.JPEG
clip,1,1405,NaN,n01632458,n01632458,NaN,ILSVRC2012_val_00003863.JPEG
clip,1,1406,NaN,n01629819,n01632458,NaN,ILSVRC2012_val_00006264.JPEG
clip,1,1407,NaN,n01632458,n01632458,NaN,ILSVRC2012_val_00007050.JPEG
clip,1,1408,NaN,n01631663,n01632458,NaN,ILSVRC2012_val_00009779.JPEG
clip,1,1409,NaN,n01632458,n01632458,NaN,ILSVRC2012_val_00010462.JPEG
clip,1,1410,NaN,n01629819,n01632458,NaN,ILSVRC2012_val_00010675.JPEG
clip,1,1411,NaN,n01632458,n01632458,NaN,ILSVRC2012_val_00011657.JPEG
clip,1,1412,NaN,n01632458,n01632458,NaN,ILSVRC2012_val_00013069.JPEG
clip,1,1413,NaN,n01632458,n01632458,NaN,ILSVRC2012_val_00013271.JPEG
clip,1,1414,NaN,n01632458,n01632458,NaN,ILSVRC2012_val_00015091.JPEG
clip,1,1415,NaN,n01632458,n01632458,NaN,ILSVRC2012_val_00015709.JPEG
clip,1,1416,NaN,n01632458,n01632458,NaN,ILSVRC2012_val_00016537.JPEG
clip,1,1417,NaN,n01632458,n01632458,NaN,ILSVRC2012_val_00017012.JPEG
clip,1,1418,NaN,n01632458,n01632458,NaN,ILSVRC2012_val_00018008.JPEG
clip,1,1419,NaN,n01632458,n01632458,NaN,ILSVRC2012_val_00021024.JPEG
clip,1,1420,NaN,n01632458,n01632458,NaN,ILSVRC2012_val_00021299.JPEG
clip,1,1421,NaN,n01632458,n01632458,NaN,ILSVRC2012_val_00021906.JPEG
clip,1,1422,NaN,n01632458,n01632458,NaN,ILSVRC2012_val_00023080.JPEG
clip,1,1423,NaN,n01632458,n01632458,NaN,ILSVRC2012_val_00024164.JPEG
clip,1,1424,NaN,n01631663,n01632458,NaN,ILSVRC2012_val_00024262.JPEG
clip,1,1425,NaN,n01632458,n01632458,NaN,ILSVRC2012_val_00025435.JPEG
clip,1,1426,NaN,n01632458,n01632458,NaN,ILSVRC2012_val_00025492.JPEG
clip,1,1427,NaN,n01632458,n01632458,NaN,ILSVRC2012_val_00026813.JPEG
clip,1,1428,NaN,n01629819,n01632458,NaN,ILSVRC2012_val_00027931.JPEG
clip,1,1429,NaN,n01632458,n01632458,NaN,ILSVRC2012_val_00029491.JPEG
clip,1,1430,NaN,n01644900,n01632458,NaN,ILSVRC2012_val_00029732.JPEG
clip,1,1431,NaN,n01632458,n01632458,NaN,ILSVRC2012_val_00029977.JPEG
clip,1,1432,NaN,n01632458,n01632458,NaN,ILSVRC2012_val_00030418.JPEG
clip,1,1433,NaN,n01632458,n01632458,NaN,ILSVRC2012_val_00031289.JPEG
clip,1,1434,NaN,n01632458,n01632458,NaN,ILSVRC2012_val_00031521.JPEG
clip,1,1435,NaN,n01632458,n01632458,NaN,ILSVRC2012_val_00033219.JPEG
clip,1,1436,NaN,n01629819,n01632458,NaN,ILSVRC2012_val_00033767.JPEG
clip,1,1437,NaN,n01632458,n01632458,NaN,ILSVRC2012_val_00035814.JPEG
clip,1,1438,NaN,n01629819,n01632458,NaN,ILSVRC2012_val_00035936.JPEG
clip,1,1439,NaN,n01632458,n01632458,NaN,ILSVRC2012_val_00036878.JPEG
clip,1,1440,NaN,n01644900,n01632458,NaN,ILSVRC2012_val_00038202.JPEG
clip,1,1441,NaN,n01632458,n01632458,NaN,ILSVRC2012_val_00038459.JPEG
clip,1,1442,NaN,n01632458,n01632458,NaN,ILSVRC2012_val_00039902.JPEG
clip,1,1443,NaN,n01632458,n01632458,NaN,ILSVRC2012_val_00039933.JPEG
