subj,session,trial,rt,object_response,category,condition,imagename
deit_insup,1,1,NaN,n02640242,n01440764,NaN,ILSVRC2012_val_00000293.JPEG
deit_insup,1,2,NaN,n01440764,n01440764,NaN,ILSVRC2012_val_00002138.JPEG
deit_insup,1,3,NaN,n01440764,n01440764,NaN,ILSVRC2012_val_00003014.JPEG
deit_insup,1,4,NaN,n01440764,n01440764,NaN,ILSVRC2012_val_00006697.JPEG
deit_insup,1,5,NaN,n01440764,n01440764,NaN,ILSVRC2012_val_00007197.JPEG
deit_insup,1,6,NaN,n01440764,n01440764,NaN,ILSVRC2012_val_00009111.JPEG
deit_insup,1,7,NaN,n01440764,n01440764,NaN,ILSVRC2012_val_00009191.JPEG
deit_insup,1,8,NaN,n01440764,n01440764,NaN,ILSVRC2012_val_00009346.JPEG
deit_insup,1,9,NaN,n01440764,n01440764,NaN,ILSVRC2012_val_00009379.JPEG
deit_insup,1,10,NaN,n01440764,n01440764,NaN,ILSVRC2012_val_00009396.JPEG
deit_insup,1,11,NaN,n02011460,n01440764,NaN,ILSVRC2012_val_00010306.JPEG
deit_insup,1,12,NaN,n01440764,n01440764,NaN,ILSVRC2012_val_00011233.JPEG
deit_insup,1,13,NaN,n01440764,n01440764,NaN,ILSVRC2012_val_00011993.JPEG
deit_insup,1,14,NaN,n01440764,n01440764,NaN,ILSVRC2012_val_00012503.JPEG
deit_insup,1,15,NaN,n01440764,n01440764,NaN,ILSVRC2012_val_00013716.JPEG
deit_insup,1,16,NaN,n01440764,n01440764,NaN,ILSVRC2012_val_00016018.JPEG
deit_insup,1,17,NaN,n01440764,n01440764,NaN,ILSVRC2012_val_00017472.JPEG
deit_insup,1,18,NaN,n01440764,n01440764,NaN,ILSVRC2012_val_00017699.JPEG
deit_insup,1,19,NaN,n01440764,n01440764,NaN,ILSVRC2012_val_00017700.JPEG
deit_insup,1,20,NaN,n01440764,n01440764,NaN,ILSVRC2012_val_00017995.JPEG
deit_insup,1,21,NaN,n01440764,n01440764,NaN,ILSVRC2012_val_00018317.JPEG
deit_insup,1,22,NaN,n01440764,n01440764,NaN,ILSVRC2012_val_00021740.JPEG
deit_insup,1,23,NaN,n01440764,n01440764,NaN,ILSVRC2012_val_00023559.JPEG
deit_insup,1,24,NaN,n01440764,n01440764,NaN,ILSVRC2012_val_00024235.JPEG
deit_insup,1,25,NaN,n01440764,n01440764,NaN,ILSVRC2012_val_00024327.JPEG
deit_insup,1,26,NaN,n01440764,n01440764,NaN,ILSVRC2012_val_00025129.JPEG
deit_insup,1,27,NaN,n01440764,n01440764,NaN,ILSVRC2012_val_00025527.JPEG
deit_insup,1,28,NaN,n01440764,n01440764,NaN,ILSVRC2012_val_00026064.JPEG
deit_insup,1,29,NaN,n01440764,n01440764,NaN,ILSVRC2012_val_00026397.JPEG
deit_insup,1,30,NaN,n01440764,n01440764,NaN,ILSVRC2012_val_00028158.JPEG
deit_insup,1,31,NaN,n01440764,n01440764,NaN,ILSVRC2012_val_00029930.JPEG
deit_insup,1,32,NaN,n01440764,n01440764,NaN,ILSVRC2012_val_00030740.JPEG
deit_insup,1,33,NaN,n01440764,n01440764,NaN,ILSVRC2012_val_00031094.JPEG
deit_insup,1,34,NaN,n01440764,n01440764,NaN,ILSVRC2012_val_00031333.JPEG
deit_insup,1,35,NaN,n01440764,n01440764,NaN,ILSVRC2012_val_00034654.JPEG
deit_insup,1,36,NaN,n04067472,n01440764,NaN,ILSVRC2012_val_00037375.JPEG
deit_insup,1,37,NaN,n01440764,n01440764,NaN,ILSVRC2012_val_00037383.JPEG
deit_insup,1,38,NaN,n01440764,n01440764,NaN,ILSVRC2012_val_00037596.JPEG
deit_insup,1,39,NaN,n01440764,n01440764,NaN,ILSVRC2012_val_00037834.JPEG
deit_insup,1,40,NaN,n01440764,n01440764,NaN,ILSVRC2012_val_00037861.JPEG
deit_insup,1,41,NaN,n01440764,n01440764,NaN,ILSVRC2012_val_00039905.JPEG
deit_insup,1,42,NaN,n01440764,n01440764,NaN,ILSVRC2012_val_00040358.JPEG
deit_insup,1,43,NaN,n01440764,n01440764,NaN,ILSVRC2012_val_00040833.JPEG
deit_insup,1,44,NaN,n01440764,n01440764,NaN,ILSVRC2012_val_00041939.JPEG
deit_insup,1,45,NaN,n01440764,n01440764,NaN,ILSVRC2012_val_00045866.JPEG
deit_insup,1,46,NaN,n01440764,n01440764,NaN,ILSVRC2012_val_00045880.JPEG
deit_insup,1,47,NaN,n01440764,n01440764,NaN,ILSVRC2012_val_00046252.JPEG
deit_insup,1,48,NaN,n01440764,n01440764,NaN,ILSVRC2012_val_00046499.JPEG
deit_insup,1,49,NaN,n01440764,n01440764,NaN,ILSVRC2012_val_00048204.JPEG
deit_insup,1,50,NaN,n01440764,n01440764,NaN,ILSVRC2012_val_00048969.JPEG
deit_insup,1,51,NaN,n01950731,n01443537,NaN,ILSVRC2012_val_00000236.JPEG
deit_insup,1,52,NaN,n01443537,n01443537,NaN,ILSVRC2012_val_00000262.JPEG
deit_insup,1,53,NaN,n01443537,n01443537,NaN,ILSVRC2012_val_00000307.JPEG
deit_insup,1,54,NaN,n01443537,n01443537,NaN,ILSVRC2012_val_00000994.JPEG
deit_insup,1,55,NaN,n01443537,n01443537,NaN,ILSVRC2012_val_00002241.JPEG
deit_insup,1,56,NaN,n01443537,n01443537,NaN,ILSVRC2012_val_00002848.JPEG
deit_insup,1,57,NaN,n01443537,n01443537,NaN,ILSVRC2012_val_00003150.JPEG
deit_insup,1,58,NaN,n01443537,n01443537,NaN,ILSVRC2012_val_00003735.JPEG
deit_insup,1,59,NaN,n01443537,n01443537,NaN,ILSVRC2012_val_00004655.JPEG
deit_insup,1,60,NaN,n01443537,n01443537,NaN,ILSVRC2012_val_00004677.JPEG
deit_insup,1,61,NaN,n01443537,n01443537,NaN,ILSVRC2012_val_00005870.JPEG
deit_insup,1,62,NaN,n01443537,n01443537,NaN,ILSVRC2012_val_00006007.JPEG
deit_insup,1,63,NaN,n01443537,n01443537,NaN,ILSVRC2012_val_00006216.JPEG
deit_insup,1,64,NaN,n01443537,n01443537,NaN,ILSVRC2012_val_00009034.JPEG
deit_insup,1,65,NaN,n01443537,n01443537,NaN,ILSVRC2012_val_00010363.JPEG
deit_insup,1,66,NaN,n01443537,n01443537,NaN,ILSVRC2012_val_00010509.JPEG
deit_insup,1,67,NaN,n01443537,n01443537,NaN,ILSVRC2012_val_00011914.JPEG
deit_insup,1,68,NaN,n01443537,n01443537,NaN,ILSVRC2012_val_00012880.JPEG
deit_insup,1,69,NaN,n01443537,n01443537,NaN,ILSVRC2012_val_00013513.JPEG
deit_insup,1,70,NaN,n01443537,n01443537,NaN,ILSVRC2012_val_00013623.JPEG
deit_insup,1,71,NaN,n01443537,n01443537,NaN,ILSVRC2012_val_00016962.JPEG
deit_insup,1,72,NaN,n01443537,n01443537,NaN,ILSVRC2012_val_00018075.JPEG
deit_insup,1,73,NaN,n01443537,n01443537,NaN,ILSVRC2012_val_00019459.JPEG
deit_insup,1,74,NaN,n01443537,n01443537,NaN,ILSVRC2012_val_00020436.JPEG
deit_insup,1,75,NaN,n01443537,n01443537,NaN,ILSVRC2012_val_00020785.JPEG
deit_insup,1,76,NaN,n01443537,n01443537,NaN,ILSVRC2012_val_00020822.JPEG
deit_insup,1,77,NaN,n01443537,n01443537,NaN,ILSVRC2012_val_00021905.JPEG
deit_insup,1,78,NaN,n01443537,n01443537,NaN,ILSVRC2012_val_00022138.JPEG
deit_insup,1,79,NaN,n01443537,n01443537,NaN,ILSVRC2012_val_00023869.JPEG
deit_insup,1,80,NaN,n01443537,n01443537,NaN,ILSVRC2012_val_00028713.JPEG
deit_insup,1,81,NaN,n01443537,n01443537,NaN,ILSVRC2012_val_00030060.JPEG
deit_insup,1,82,NaN,n01443537,n01443537,NaN,ILSVRC2012_val_00030217.JPEG
deit_insup,1,83,NaN,n01443537,n01443537,NaN,ILSVRC2012_val_00031138.JPEG
deit_insup,1,84,NaN,n01443537,n01443537,NaN,ILSVRC2012_val_00032235.JPEG
deit_insup,1,85,NaN,n01443537,n01443537,NaN,ILSVRC2012_val_00032258.JPEG
deit_insup,1,86,NaN,n01443537,n01443537,NaN,ILSVRC2012_val_00032675.JPEG
deit_insup,1,87,NaN,n01443537,n01443537,NaN,ILSVRC2012_val_00034386.JPEG
deit_insup,1,88,NaN,n01443537,n01443537,NaN,ILSVRC2012_val_00037846.JPEG
deit_insup,1,89,NaN,n01443537,n01443537,NaN,ILSVRC2012_val_00038057.JPEG
deit_insup,1,90,NaN,n01443537,n01443537,NaN,ILSVRC2012_val_00044095.JPEG
deit_insup,1,91,NaN,n01443537,n01443537,NaN,ILSVRC2012_val_00045761.JPEG
deit_insup,1,92,NaN,n01737021,n01443537,NaN,ILSVRC2012_val_00046915.JPEG
deit_insup,1,93,NaN,n01443537,n01443537,NaN,ILSVRC2012_val_00046969.JPEG
deit_insup,1,94,NaN,n01443537,n01443537,NaN,ILSVRC2012_val_00047396.JPEG
deit_insup,1,95,NaN,n01443537,n01443537,NaN,ILSVRC2012_val_00047561.JPEG
deit_insup,1,96,NaN,n01443537,n01443537,NaN,ILSVRC2012_val_00048840.JPEG
deit_insup,1,97,NaN,n01443537,n01443537,NaN,ILSVRC2012_val_00048864.JPEG
deit_insup,1,98,NaN,n01443537,n01443537,NaN,ILSVRC2012_val_00049585.JPEG
deit_insup,1,99,NaN,n01443537,n01443537,NaN,ILSVRC2012_val_00049617.JPEG
deit_insup,1,100,NaN,n01910747,n01443537,NaN,ILSVRC2012_val_00049712.JPEG
deit_insup,1,101,NaN,n01484850,n01484850,NaN,ILSVRC2012_val_00002338.JPEG
deit_insup,1,102,NaN,n01484850,n01484850,NaN,ILSVRC2012_val_00002752.JPEG
deit_insup,1,103,NaN,n01484850,n01484850,NaN,ILSVRC2012_val_00004311.JPEG
deit_insup,1,104,NaN,n01484850,n01484850,NaN,ILSVRC2012_val_00004329.JPEG
deit_insup,1,105,NaN,n01484850,n01484850,NaN,ILSVRC2012_val_00006491.JPEG
deit_insup,1,106,NaN,n01494475,n01484850,NaN,ILSVRC2012_val_00008848.JPEG
deit_insup,1,107,NaN,n01484850,n01484850,NaN,ILSVRC2012_val_00014467.JPEG
deit_insup,1,108,NaN,n02071294,n01484850,NaN,ILSVRC2012_val_00015157.JPEG
deit_insup,1,109,NaN,n01484850,n01484850,NaN,ILSVRC2012_val_00015220.JPEG
deit_insup,1,110,NaN,n01484850,n01484850,NaN,ILSVRC2012_val_00016168.JPEG
deit_insup,1,111,NaN,n01484850,n01484850,NaN,ILSVRC2012_val_00016859.JPEG
deit_insup,1,112,NaN,n01484850,n01484850,NaN,ILSVRC2012_val_00016988.JPEG
deit_insup,1,113,NaN,n04458633,n01484850,NaN,ILSVRC2012_val_00017105.JPEG
deit_insup,1,114,NaN,n01491361,n01484850,NaN,ILSVRC2012_val_00017194.JPEG
deit_insup,1,115,NaN,n01484850,n01484850,NaN,ILSVRC2012_val_00019409.JPEG
deit_insup,1,116,NaN,n01484850,n01484850,NaN,ILSVRC2012_val_00019435.JPEG
deit_insup,1,117,NaN,n01484850,n01484850,NaN,ILSVRC2012_val_00020011.JPEG
deit_insup,1,118,NaN,n01494475,n01484850,NaN,ILSVRC2012_val_00023185.JPEG
deit_insup,1,119,NaN,n01484850,n01484850,NaN,ILSVRC2012_val_00024940.JPEG
deit_insup,1,120,NaN,n01484850,n01484850,NaN,ILSVRC2012_val_00025900.JPEG
deit_insup,1,121,NaN,n01484850,n01484850,NaN,ILSVRC2012_val_00027063.JPEG
deit_insup,1,122,NaN,n01484850,n01484850,NaN,ILSVRC2012_val_00027419.JPEG
deit_insup,1,123,NaN,n01491361,n01484850,NaN,ILSVRC2012_val_00027514.JPEG
deit_insup,1,124,NaN,n01484850,n01484850,NaN,ILSVRC2012_val_00028028.JPEG
deit_insup,1,125,NaN,n01484850,n01484850,NaN,ILSVRC2012_val_00029481.JPEG
deit_insup,1,126,NaN,n01484850,n01484850,NaN,ILSVRC2012_val_00030127.JPEG
deit_insup,1,127,NaN,n01484850,n01484850,NaN,ILSVRC2012_val_00031466.JPEG
deit_insup,1,128,NaN,n01491361,n01484850,NaN,ILSVRC2012_val_00031720.JPEG
deit_insup,1,129,NaN,n01484850,n01484850,NaN,ILSVRC2012_val_00031808.JPEG
deit_insup,1,130,NaN,n01484850,n01484850,NaN,ILSVRC2012_val_00032288.JPEG
deit_insup,1,131,NaN,n01491361,n01484850,NaN,ILSVRC2012_val_00032417.JPEG
deit_insup,1,132,NaN,n01484850,n01484850,NaN,ILSVRC2012_val_00034950.JPEG
deit_insup,1,133,NaN,n01484850,n01484850,NaN,ILSVRC2012_val_00035223.JPEG
deit_insup,1,134,NaN,n01484850,n01484850,NaN,ILSVRC2012_val_00035774.JPEG
deit_insup,1,135,NaN,n01484850,n01484850,NaN,ILSVRC2012_val_00036737.JPEG
deit_insup,1,136,NaN,n01484850,n01484850,NaN,ILSVRC2012_val_00037050.JPEG
deit_insup,1,137,NaN,n01484850,n01484850,NaN,ILSVRC2012_val_00037135.JPEG
deit_insup,1,138,NaN,n01484850,n01484850,NaN,ILSVRC2012_val_00037488.JPEG
deit_insup,1,139,NaN,n01484850,n01484850,NaN,ILSVRC2012_val_00037998.JPEG
deit_insup,1,140,NaN,n01484850,n01484850,NaN,ILSVRC2012_val_00039304.JPEG
deit_insup,1,141,NaN,n01484850,n01484850,NaN,ILSVRC2012_val_00039445.JPEG
deit_insup,1,142,NaN,n01484850,n01484850,NaN,ILSVRC2012_val_00039534.JPEG
deit_insup,1,143,NaN,n01484850,n01484850,NaN,ILSVRC2012_val_00039865.JPEG
deit_insup,1,144,NaN,n01491361,n01484850,NaN,ILSVRC2012_val_00040098.JPEG
deit_insup,1,145,NaN,n01484850,n01484850,NaN,ILSVRC2012_val_00040710.JPEG
deit_insup,1,146,NaN,n01494475,n01484850,NaN,ILSVRC2012_val_00042345.JPEG
deit_insup,1,147,NaN,n01494475,n01484850,NaN,ILSVRC2012_val_00044052.JPEG
deit_insup,1,148,NaN,n01484850,n01484850,NaN,ILSVRC2012_val_00044896.JPEG
deit_insup,1,149,NaN,n01484850,n01484850,NaN,ILSVRC2012_val_00045730.JPEG
deit_insup,1,150,NaN,n01484850,n01484850,NaN,ILSVRC2012_val_00046171.JPEG
deit_insup,1,151,NaN,n01491361,n01491361,NaN,ILSVRC2012_val_00002922.JPEG
deit_insup,1,152,NaN,n01494475,n01491361,NaN,ILSVRC2012_val_00002969.JPEG
deit_insup,1,153,NaN,n01491361,n01491361,NaN,ILSVRC2012_val_00003183.JPEG
deit_insup,1,154,NaN,n01491361,n01491361,NaN,ILSVRC2012_val_00003204.JPEG
deit_insup,1,155,NaN,n01491361,n01491361,NaN,ILSVRC2012_val_00007743.JPEG
deit_insup,1,156,NaN,n01491361,n01491361,NaN,ILSVRC2012_val_00007875.JPEG
deit_insup,1,157,NaN,n01491361,n01491361,NaN,ILSVRC2012_val_00008024.JPEG
deit_insup,1,158,NaN,n01491361,n01491361,NaN,ILSVRC2012_val_00008108.JPEG
deit_insup,1,159,NaN,n01491361,n01491361,NaN,ILSVRC2012_val_00010074.JPEG
deit_insup,1,160,NaN,n01491361,n01491361,NaN,ILSVRC2012_val_00012328.JPEG
deit_insup,1,161,NaN,n01491361,n01491361,NaN,ILSVRC2012_val_00013484.JPEG
deit_insup,1,162,NaN,n01491361,n01491361,NaN,ILSVRC2012_val_00013628.JPEG
deit_insup,1,163,NaN,n01494475,n01491361,NaN,ILSVRC2012_val_00015631.JPEG
deit_insup,1,164,NaN,n01491361,n01491361,NaN,ILSVRC2012_val_00018466.JPEG
deit_insup,1,165,NaN,n02066245,n01491361,NaN,ILSVRC2012_val_00019424.JPEG
deit_insup,1,166,NaN,n01484850,n01491361,NaN,ILSVRC2012_val_00023443.JPEG
deit_insup,1,167,NaN,n01496331,n01491361,NaN,ILSVRC2012_val_00023935.JPEG
deit_insup,1,168,NaN,n01491361,n01491361,NaN,ILSVRC2012_val_00024854.JPEG
deit_insup,1,169,NaN,n01491361,n01491361,NaN,ILSVRC2012_val_00024895.JPEG
deit_insup,1,170,NaN,n01494475,n01491361,NaN,ILSVRC2012_val_00025133.JPEG
deit_insup,1,171,NaN,n01491361,n01491361,NaN,ILSVRC2012_val_00025137.JPEG
deit_insup,1,172,NaN,n01491361,n01491361,NaN,ILSVRC2012_val_00025640.JPEG
deit_insup,1,173,NaN,n01491361,n01491361,NaN,ILSVRC2012_val_00025686.JPEG
deit_insup,1,174,NaN,n01491361,n01491361,NaN,ILSVRC2012_val_00025969.JPEG
deit_insup,1,175,NaN,n01491361,n01491361,NaN,ILSVRC2012_val_00026001.JPEG
deit_insup,1,176,NaN,n02066245,n01491361,NaN,ILSVRC2012_val_00028564.JPEG
deit_insup,1,177,NaN,n01491361,n01491361,NaN,ILSVRC2012_val_00029300.JPEG
deit_insup,1,178,NaN,n01491361,n01491361,NaN,ILSVRC2012_val_00029568.JPEG
deit_insup,1,179,NaN,n01491361,n01491361,NaN,ILSVRC2012_val_00030156.JPEG
deit_insup,1,180,NaN,n01491361,n01491361,NaN,ILSVRC2012_val_00030658.JPEG
deit_insup,1,181,NaN,n01491361,n01491361,NaN,ILSVRC2012_val_00030926.JPEG
deit_insup,1,182,NaN,n01491361,n01491361,NaN,ILSVRC2012_val_00031071.JPEG
deit_insup,1,183,NaN,n01491361,n01491361,NaN,ILSVRC2012_val_00031243.JPEG
deit_insup,1,184,NaN,n01491361,n01491361,NaN,ILSVRC2012_val_00031568.JPEG
deit_insup,1,185,NaN,n01494475,n01491361,NaN,ILSVRC2012_val_00032130.JPEG
deit_insup,1,186,NaN,n01491361,n01491361,NaN,ILSVRC2012_val_00034038.JPEG
deit_insup,1,187,NaN,n01491361,n01491361,NaN,ILSVRC2012_val_00034413.JPEG
deit_insup,1,188,NaN,n01494475,n01491361,NaN,ILSVRC2012_val_00035405.JPEG
deit_insup,1,189,NaN,n01491361,n01491361,NaN,ILSVRC2012_val_00035495.JPEG
deit_insup,1,190,NaN,n01491361,n01491361,NaN,ILSVRC2012_val_00036420.JPEG
deit_insup,1,191,NaN,n01491361,n01491361,NaN,ILSVRC2012_val_00037516.JPEG
deit_insup,1,192,NaN,n01491361,n01491361,NaN,ILSVRC2012_val_00037581.JPEG
deit_insup,1,193,NaN,n01491361,n01491361,NaN,ILSVRC2012_val_00037780.JPEG
deit_insup,1,194,NaN,n01491361,n01491361,NaN,ILSVRC2012_val_00037915.JPEG
deit_insup,1,195,NaN,n01491361,n01491361,NaN,ILSVRC2012_val_00040388.JPEG
deit_insup,1,196,NaN,n01491361,n01491361,NaN,ILSVRC2012_val_00041635.JPEG
deit_insup,1,197,NaN,n02526121,n01491361,NaN,ILSVRC2012_val_00046159.JPEG
deit_insup,1,198,NaN,n02074367,n01491361,NaN,ILSVRC2012_val_00047326.JPEG
deit_insup,1,199,NaN,n01491361,n01491361,NaN,ILSVRC2012_val_00048890.JPEG
deit_insup,1,200,NaN,n01491361,n01491361,NaN,ILSVRC2012_val_00049000.JPEG
deit_insup,1,201,NaN,n01494475,n01494475,NaN,ILSVRC2012_val_00001676.JPEG
deit_insup,1,202,NaN,n01494475,n01494475,NaN,ILSVRC2012_val_00003558.JPEG
deit_insup,1,203,NaN,n01494475,n01494475,NaN,ILSVRC2012_val_00004417.JPEG
deit_insup,1,204,NaN,n01494475,n01494475,NaN,ILSVRC2012_val_00005339.JPEG
deit_insup,1,205,NaN,n01494475,n01494475,NaN,ILSVRC2012_val_00007405.JPEG
deit_insup,1,206,NaN,n01494475,n01494475,NaN,ILSVRC2012_val_00009460.JPEG
deit_insup,1,207,NaN,n01494475,n01494475,NaN,ILSVRC2012_val_00009978.JPEG
deit_insup,1,208,NaN,n01494475,n01494475,NaN,ILSVRC2012_val_00011388.JPEG
deit_insup,1,209,NaN,n02640242,n01494475,NaN,ILSVRC2012_val_00012546.JPEG
deit_insup,1,210,NaN,n01494475,n01494475,NaN,ILSVRC2012_val_00012879.JPEG
deit_insup,1,211,NaN,n01494475,n01494475,NaN,ILSVRC2012_val_00013847.JPEG
deit_insup,1,212,NaN,n01494475,n01494475,NaN,ILSVRC2012_val_00015139.JPEG
deit_insup,1,213,NaN,n01494475,n01494475,NaN,ILSVRC2012_val_00015545.JPEG
deit_insup,1,214,NaN,n01494475,n01494475,NaN,ILSVRC2012_val_00016259.JPEG
deit_insup,1,215,NaN,n01494475,n01494475,NaN,ILSVRC2012_val_00016347.JPEG
deit_insup,1,216,NaN,n01494475,n01494475,NaN,ILSVRC2012_val_00016395.JPEG
deit_insup,1,217,NaN,n01494475,n01494475,NaN,ILSVRC2012_val_00016834.JPEG
deit_insup,1,218,NaN,n01494475,n01494475,NaN,ILSVRC2012_val_00018943.JPEG
deit_insup,1,219,NaN,n01494475,n01494475,NaN,ILSVRC2012_val_00018948.JPEG
deit_insup,1,220,NaN,n01494475,n01494475,NaN,ILSVRC2012_val_00020418.JPEG
deit_insup,1,221,NaN,n01491361,n01494475,NaN,ILSVRC2012_val_00021325.JPEG
deit_insup,1,222,NaN,n01484850,n01494475,NaN,ILSVRC2012_val_00022552.JPEG
deit_insup,1,223,NaN,n01494475,n01494475,NaN,ILSVRC2012_val_00023074.JPEG
deit_insup,1,224,NaN,n01494475,n01494475,NaN,ILSVRC2012_val_00023986.JPEG
deit_insup,1,225,NaN,n01494475,n01494475,NaN,ILSVRC2012_val_00024015.JPEG
deit_insup,1,226,NaN,n01494475,n01494475,NaN,ILSVRC2012_val_00025627.JPEG
deit_insup,1,227,NaN,n01494475,n01494475,NaN,ILSVRC2012_val_00026490.JPEG
deit_insup,1,228,NaN,n01494475,n01494475,NaN,ILSVRC2012_val_00027113.JPEG
deit_insup,1,229,NaN,n01494475,n01494475,NaN,ILSVRC2012_val_00027160.JPEG
deit_insup,1,230,NaN,n01494475,n01494475,NaN,ILSVRC2012_val_00027283.JPEG
deit_insup,1,231,NaN,n01494475,n01494475,NaN,ILSVRC2012_val_00028084.JPEG
deit_insup,1,232,NaN,n01494475,n01494475,NaN,ILSVRC2012_val_00029886.JPEG
deit_insup,1,233,NaN,n01494475,n01494475,NaN,ILSVRC2012_val_00031169.JPEG
deit_insup,1,234,NaN,n01494475,n01494475,NaN,ILSVRC2012_val_00031424.JPEG
deit_insup,1,235,NaN,n01498041,n01494475,NaN,ILSVRC2012_val_00034115.JPEG
deit_insup,1,236,NaN,n01494475,n01494475,NaN,ILSVRC2012_val_00034178.JPEG
deit_insup,1,237,NaN,n01494475,n01494475,NaN,ILSVRC2012_val_00035367.JPEG
deit_insup,1,238,NaN,n01494475,n01494475,NaN,ILSVRC2012_val_00036479.JPEG
deit_insup,1,239,NaN,n01494475,n01494475,NaN,ILSVRC2012_val_00037705.JPEG
deit_insup,1,240,NaN,n01494475,n01494475,NaN,ILSVRC2012_val_00039588.JPEG
deit_insup,1,241,NaN,n01494475,n01494475,NaN,ILSVRC2012_val_00040843.JPEG
deit_insup,1,242,NaN,n01494475,n01494475,NaN,ILSVRC2012_val_00041400.JPEG
deit_insup,1,243,NaN,n01494475,n01494475,NaN,ILSVRC2012_val_00044788.JPEG
deit_insup,1,244,NaN,n01494475,n01494475,NaN,ILSVRC2012_val_00045133.JPEG
deit_insup,1,245,NaN,n01494475,n01494475,NaN,ILSVRC2012_val_00045580.JPEG
deit_insup,1,246,NaN,n01494475,n01494475,NaN,ILSVRC2012_val_00045925.JPEG
deit_insup,1,247,NaN,n01494475,n01494475,NaN,ILSVRC2012_val_00047320.JPEG
deit_insup,1,248,NaN,n01494475,n01494475,NaN,ILSVRC2012_val_00047431.JPEG
deit_insup,1,249,NaN,n01494475,n01494475,NaN,ILSVRC2012_val_00048576.JPEG
deit_insup,1,250,NaN,n01494475,n01494475,NaN,ILSVRC2012_val_00049166.JPEG
deit_insup,1,251,NaN,n01496331,n01496331,NaN,ILSVRC2012_val_00000921.JPEG
deit_insup,1,252,NaN,n01496331,n01496331,NaN,ILSVRC2012_val_00002207.JPEG
deit_insup,1,253,NaN,n01496331,n01496331,NaN,ILSVRC2012_val_00004698.JPEG
deit_insup,1,254,NaN,n01496331,n01496331,NaN,ILSVRC2012_val_00004969.JPEG
deit_insup,1,255,NaN,n01496331,n01496331,NaN,ILSVRC2012_val_00005432.JPEG
deit_insup,1,256,NaN,n01496331,n01496331,NaN,ILSVRC2012_val_00006251.JPEG
deit_insup,1,257,NaN,n01496331,n01496331,NaN,ILSVRC2012_val_00006554.JPEG
deit_insup,1,258,NaN,n01496331,n01496331,NaN,ILSVRC2012_val_00007569.JPEG
deit_insup,1,259,NaN,n01496331,n01496331,NaN,ILSVRC2012_val_00008640.JPEG
deit_insup,1,260,NaN,n01496331,n01496331,NaN,ILSVRC2012_val_00008749.JPEG
deit_insup,1,261,NaN,n01496331,n01496331,NaN,ILSVRC2012_val_00008963.JPEG
deit_insup,1,262,NaN,n01496331,n01496331,NaN,ILSVRC2012_val_00009208.JPEG
deit_insup,1,263,NaN,n04532106,n01496331,NaN,ILSVRC2012_val_00009237.JPEG
deit_insup,1,264,NaN,n01496331,n01496331,NaN,ILSVRC2012_val_00009420.JPEG
deit_insup,1,265,NaN,n01498041,n01496331,NaN,ILSVRC2012_val_00009518.JPEG
deit_insup,1,266,NaN,n01496331,n01496331,NaN,ILSVRC2012_val_00011782.JPEG
deit_insup,1,267,NaN,n01496331,n01496331,NaN,ILSVRC2012_val_00014741.JPEG
deit_insup,1,268,NaN,n01496331,n01496331,NaN,ILSVRC2012_val_00015549.JPEG
deit_insup,1,269,NaN,n01496331,n01496331,NaN,ILSVRC2012_val_00015555.JPEG
deit_insup,1,270,NaN,n01496331,n01496331,NaN,ILSVRC2012_val_00015732.JPEG
deit_insup,1,271,NaN,n01496331,n01496331,NaN,ILSVRC2012_val_00016331.JPEG
deit_insup,1,272,NaN,n01496331,n01496331,NaN,ILSVRC2012_val_00017196.JPEG
deit_insup,1,273,NaN,n01496331,n01496331,NaN,ILSVRC2012_val_00017440.JPEG
deit_insup,1,274,NaN,n01491361,n01496331,NaN,ILSVRC2012_val_00019531.JPEG
deit_insup,1,275,NaN,n01496331,n01496331,NaN,ILSVRC2012_val_00019988.JPEG
deit_insup,1,276,NaN,n01496331,n01496331,NaN,ILSVRC2012_val_00021461.JPEG
deit_insup,1,277,NaN,n01496331,n01496331,NaN,ILSVRC2012_val_00022387.JPEG
deit_insup,1,278,NaN,n01496331,n01496331,NaN,ILSVRC2012_val_00022865.JPEG
deit_insup,1,279,NaN,n01494475,n01496331,NaN,ILSVRC2012_val_00023916.JPEG
deit_insup,1,280,NaN,n01496331,n01496331,NaN,ILSVRC2012_val_00027301.JPEG
deit_insup,1,281,NaN,n01496331,n01496331,NaN,ILSVRC2012_val_00027633.JPEG
deit_insup,1,282,NaN,n01496331,n01496331,NaN,ILSVRC2012_val_00028161.JPEG
deit_insup,1,283,NaN,n01496331,n01496331,NaN,ILSVRC2012_val_00028422.JPEG
deit_insup,1,284,NaN,n01496331,n01496331,NaN,ILSVRC2012_val_00030321.JPEG
deit_insup,1,285,NaN,n01496331,n01496331,NaN,ILSVRC2012_val_00030367.JPEG
deit_insup,1,286,NaN,n01496331,n01496331,NaN,ILSVRC2012_val_00033070.JPEG
deit_insup,1,287,NaN,n01496331,n01496331,NaN,ILSVRC2012_val_00033318.JPEG
deit_insup,1,288,NaN,n01496331,n01496331,NaN,ILSVRC2012_val_00034837.JPEG
deit_insup,1,289,NaN,n01496331,n01496331,NaN,ILSVRC2012_val_00034971.JPEG
deit_insup,1,290,NaN,n02321529,n01496331,NaN,ILSVRC2012_val_00037260.JPEG
deit_insup,1,291,NaN,n01496331,n01496331,NaN,ILSVRC2012_val_00040567.JPEG
deit_insup,1,292,NaN,n01496331,n01496331,NaN,ILSVRC2012_val_00041248.JPEG
deit_insup,1,293,NaN,n01496331,n01496331,NaN,ILSVRC2012_val_00042245.JPEG
deit_insup,1,294,NaN,n01496331,n01496331,NaN,ILSVRC2012_val_00042751.JPEG
deit_insup,1,295,NaN,n02514041,n01496331,NaN,ILSVRC2012_val_00044657.JPEG
deit_insup,1,296,NaN,n01496331,n01496331,NaN,ILSVRC2012_val_00045502.JPEG
deit_insup,1,297,NaN,n01496331,n01496331,NaN,ILSVRC2012_val_00045936.JPEG
deit_insup,1,298,NaN,n01496331,n01496331,NaN,ILSVRC2012_val_00047080.JPEG
deit_insup,1,299,NaN,n01496331,n01496331,NaN,ILSVRC2012_val_00047589.JPEG
deit_insup,1,300,NaN,n01496331,n01496331,NaN,ILSVRC2012_val_00048119.JPEG
deit_insup,1,301,NaN,n01498041,n01498041,NaN,ILSVRC2012_val_00001935.JPEG
deit_insup,1,302,NaN,n01496331,n01498041,NaN,ILSVRC2012_val_00002284.JPEG
deit_insup,1,303,NaN,n01498041,n01498041,NaN,ILSVRC2012_val_00002480.JPEG
deit_insup,1,304,NaN,n01498041,n01498041,NaN,ILSVRC2012_val_00003518.JPEG
deit_insup,1,305,NaN,n01498041,n01498041,NaN,ILSVRC2012_val_00004873.JPEG
deit_insup,1,306,NaN,n01498041,n01498041,NaN,ILSVRC2012_val_00005642.JPEG
deit_insup,1,307,NaN,n01498041,n01498041,NaN,ILSVRC2012_val_00006402.JPEG
deit_insup,1,308,NaN,n01496331,n01498041,NaN,ILSVRC2012_val_00008952.JPEG
deit_insup,1,309,NaN,n01498041,n01498041,NaN,ILSVRC2012_val_00009734.JPEG
deit_insup,1,310,NaN,n01498041,n01498041,NaN,ILSVRC2012_val_00012259.JPEG
deit_insup,1,311,NaN,n01498041,n01498041,NaN,ILSVRC2012_val_00013655.JPEG
deit_insup,1,312,NaN,n01498041,n01498041,NaN,ILSVRC2012_val_00014771.JPEG
deit_insup,1,313,NaN,n01498041,n01498041,NaN,ILSVRC2012_val_00015045.JPEG
deit_insup,1,314,NaN,n01498041,n01498041,NaN,ILSVRC2012_val_00015373.JPEG
deit_insup,1,315,NaN,n01498041,n01498041,NaN,ILSVRC2012_val_00021793.JPEG
deit_insup,1,316,NaN,n01498041,n01498041,NaN,ILSVRC2012_val_00023239.JPEG
deit_insup,1,317,NaN,n01498041,n01498041,NaN,ILSVRC2012_val_00024204.JPEG
deit_insup,1,318,NaN,n01498041,n01498041,NaN,ILSVRC2012_val_00024719.JPEG
deit_insup,1,319,NaN,n01498041,n01498041,NaN,ILSVRC2012_val_00025051.JPEG
deit_insup,1,320,NaN,n01498041,n01498041,NaN,ILSVRC2012_val_00026908.JPEG
deit_insup,1,321,NaN,n01498041,n01498041,NaN,ILSVRC2012_val_00027005.JPEG
deit_insup,1,322,NaN,n01498041,n01498041,NaN,ILSVRC2012_val_00027415.JPEG
deit_insup,1,323,NaN,n01498041,n01498041,NaN,ILSVRC2012_val_00028450.JPEG
deit_insup,1,324,NaN,n01498041,n01498041,NaN,ILSVRC2012_val_00029169.JPEG
deit_insup,1,325,NaN,n01498041,n01498041,NaN,ILSVRC2012_val_00030380.JPEG
deit_insup,1,326,NaN,n01498041,n01498041,NaN,ILSVRC2012_val_00030470.JPEG
deit_insup,1,327,NaN,n01498041,n01498041,NaN,ILSVRC2012_val_00032394.JPEG
deit_insup,1,328,NaN,n01498041,n01498041,NaN,ILSVRC2012_val_00032441.JPEG
deit_insup,1,329,NaN,n01498041,n01498041,NaN,ILSVRC2012_val_00033337.JPEG
deit_insup,1,330,NaN,n01498041,n01498041,NaN,ILSVRC2012_val_00033942.JPEG
deit_insup,1,331,NaN,n01910747,n01498041,NaN,ILSVRC2012_val_00036118.JPEG
deit_insup,1,332,NaN,n01498041,n01498041,NaN,ILSVRC2012_val_00036157.JPEG
deit_insup,1,333,NaN,n01498041,n01498041,NaN,ILSVRC2012_val_00037740.JPEG
deit_insup,1,334,NaN,n01491361,n01498041,NaN,ILSVRC2012_val_00037753.JPEG
deit_insup,1,335,NaN,n01498041,n01498041,NaN,ILSVRC2012_val_00037798.JPEG
deit_insup,1,336,NaN,n01498041,n01498041,NaN,ILSVRC2012_val_00038215.JPEG
deit_insup,1,337,NaN,n01498041,n01498041,NaN,ILSVRC2012_val_00038935.JPEG
deit_insup,1,338,NaN,n01498041,n01498041,NaN,ILSVRC2012_val_00039308.JPEG
deit_insup,1,339,NaN,n01498041,n01498041,NaN,ILSVRC2012_val_00039525.JPEG
deit_insup,1,340,NaN,n01498041,n01498041,NaN,ILSVRC2012_val_00040342.JPEG
deit_insup,1,341,NaN,n01498041,n01498041,NaN,ILSVRC2012_val_00041872.JPEG
deit_insup,1,342,NaN,n02077923,n01498041,NaN,ILSVRC2012_val_00042175.JPEG
deit_insup,1,343,NaN,n01498041,n01498041,NaN,ILSVRC2012_val_00042385.JPEG
deit_insup,1,344,NaN,n01498041,n01498041,NaN,ILSVRC2012_val_00042534.JPEG
deit_insup,1,345,NaN,n01498041,n01498041,NaN,ILSVRC2012_val_00042547.JPEG
deit_insup,1,346,NaN,n09428293,n01498041,NaN,ILSVRC2012_val_00043229.JPEG
deit_insup,1,347,NaN,n01498041,n01498041,NaN,ILSVRC2012_val_00043323.JPEG
deit_insup,1,348,NaN,n01498041,n01498041,NaN,ILSVRC2012_val_00043702.JPEG
deit_insup,1,349,NaN,n01498041,n01498041,NaN,ILSVRC2012_val_00046497.JPEG
deit_insup,1,350,NaN,n01498041,n01498041,NaN,ILSVRC2012_val_00049253.JPEG
deit_insup,1,351,NaN,n01514668,n01514668,NaN,ILSVRC2012_val_00000329.JPEG
deit_insup,1,352,NaN,n01514859,n01514668,NaN,ILSVRC2012_val_00000911.JPEG
deit_insup,1,353,NaN,n01514668,n01514668,NaN,ILSVRC2012_val_00003605.JPEG
deit_insup,1,354,NaN,n01514668,n01514668,NaN,ILSVRC2012_val_00003606.JPEG
deit_insup,1,355,NaN,n02077923,n01514668,NaN,ILSVRC2012_val_00003936.JPEG
deit_insup,1,356,NaN,n01514668,n01514668,NaN,ILSVRC2012_val_00004306.JPEG
deit_insup,1,357,NaN,n01514668,n01514668,NaN,ILSVRC2012_val_00004463.JPEG
deit_insup,1,358,NaN,n01514668,n01514668,NaN,ILSVRC2012_val_00004550.JPEG
deit_insup,1,359,NaN,n01514668,n01514668,NaN,ILSVRC2012_val_00005492.JPEG
deit_insup,1,360,NaN,n01514668,n01514668,NaN,ILSVRC2012_val_00005505.JPEG
deit_insup,1,361,NaN,n01514668,n01514668,NaN,ILSVRC2012_val_00009219.JPEG
deit_insup,1,362,NaN,n01514668,n01514668,NaN,ILSVRC2012_val_00009510.JPEG
deit_insup,1,363,NaN,n01582220,n01514668,NaN,ILSVRC2012_val_00009663.JPEG
deit_insup,1,364,NaN,n01514668,n01514668,NaN,ILSVRC2012_val_00010208.JPEG
deit_insup,1,365,NaN,n01514668,n01514668,NaN,ILSVRC2012_val_00011403.JPEG
deit_insup,1,366,NaN,n01795545,n01514668,NaN,ILSVRC2012_val_00012484.JPEG
deit_insup,1,367,NaN,n01514668,n01514668,NaN,ILSVRC2012_val_00014090.JPEG
deit_insup,1,368,NaN,n01514859,n01514668,NaN,ILSVRC2012_val_00015242.JPEG
deit_insup,1,369,NaN,n01514668,n01514668,NaN,ILSVRC2012_val_00016052.JPEG
deit_insup,1,370,NaN,n01514668,n01514668,NaN,ILSVRC2012_val_00016781.JPEG
deit_insup,1,371,NaN,n01514668,n01514668,NaN,ILSVRC2012_val_00019101.JPEG
deit_insup,1,372,NaN,n01514859,n01514668,NaN,ILSVRC2012_val_00019423.JPEG
deit_insup,1,373,NaN,n01514668,n01514668,NaN,ILSVRC2012_val_00019721.JPEG
deit_insup,1,374,NaN,n01514668,n01514668,NaN,ILSVRC2012_val_00020106.JPEG
deit_insup,1,375,NaN,n01514668,n01514668,NaN,ILSVRC2012_val_00020451.JPEG
deit_insup,1,376,NaN,n01514668,n01514668,NaN,ILSVRC2012_val_00022025.JPEG
deit_insup,1,377,NaN,n01514859,n01514668,NaN,ILSVRC2012_val_00022248.JPEG
deit_insup,1,378,NaN,n01514668,n01514668,NaN,ILSVRC2012_val_00023551.JPEG
deit_insup,1,379,NaN,n01514668,n01514668,NaN,ILSVRC2012_val_00024957.JPEG
deit_insup,1,380,NaN,n01514668,n01514668,NaN,ILSVRC2012_val_00025431.JPEG
deit_insup,1,381,NaN,n01514668,n01514668,NaN,ILSVRC2012_val_00027207.JPEG
deit_insup,1,382,NaN,n01514668,n01514668,NaN,ILSVRC2012_val_00027351.JPEG
deit_insup,1,383,NaN,n01514668,n01514668,NaN,ILSVRC2012_val_00028221.JPEG
deit_insup,1,384,NaN,n01514668,n01514668,NaN,ILSVRC2012_val_00028712.JPEG
deit_insup,1,385,NaN,n01514859,n01514668,NaN,ILSVRC2012_val_00029921.JPEG
deit_insup,1,386,NaN,n01514668,n01514668,NaN,ILSVRC2012_val_00035104.JPEG
deit_insup,1,387,NaN,n01514668,n01514668,NaN,ILSVRC2012_val_00035151.JPEG
deit_insup,1,388,NaN,n01514668,n01514668,NaN,ILSVRC2012_val_00036368.JPEG
deit_insup,1,389,NaN,n01514668,n01514668,NaN,ILSVRC2012_val_00037070.JPEG
deit_insup,1,390,NaN,n01514668,n01514668,NaN,ILSVRC2012_val_00037569.JPEG
deit_insup,1,391,NaN,n01514668,n01514668,NaN,ILSVRC2012_val_00038826.JPEG
deit_insup,1,392,NaN,n01514668,n01514668,NaN,ILSVRC2012_val_00043387.JPEG
deit_insup,1,393,NaN,n01514668,n01514668,NaN,ILSVRC2012_val_00043751.JPEG
deit_insup,1,394,NaN,n01514859,n01514668,NaN,ILSVRC2012_val_00045107.JPEG
deit_insup,1,395,NaN,n01514668,n01514668,NaN,ILSVRC2012_val_00046393.JPEG
deit_insup,1,396,NaN,n01514668,n01514668,NaN,ILSVRC2012_val_00046524.JPEG
deit_insup,1,397,NaN,n01820546,n01514668,NaN,ILSVRC2012_val_00047137.JPEG
deit_insup,1,398,NaN,n01514668,n01514668,NaN,ILSVRC2012_val_00047724.JPEG
deit_insup,1,399,NaN,n01514859,n01514668,NaN,ILSVRC2012_val_00048952.JPEG
deit_insup,1,400,NaN,n01514668,n01514668,NaN,ILSVRC2012_val_00049181.JPEG
deit_insup,1,401,NaN,n01514859,n01514859,NaN,ILSVRC2012_val_00001114.JPEG
deit_insup,1,402,NaN,n01514859,n01514859,NaN,ILSVRC2012_val_00001368.JPEG
deit_insup,1,403,NaN,n01514859,n01514859,NaN,ILSVRC2012_val_00001906.JPEG
deit_insup,1,404,NaN,n01514859,n01514859,NaN,ILSVRC2012_val_00002372.JPEG
deit_insup,1,405,NaN,n01514668,n01514859,NaN,ILSVRC2012_val_00004183.JPEG
deit_insup,1,406,NaN,n01514859,n01514859,NaN,ILSVRC2012_val_00004315.JPEG
deit_insup,1,407,NaN,n01514859,n01514859,NaN,ILSVRC2012_val_00005535.JPEG
deit_insup,1,408,NaN,n01514859,n01514859,NaN,ILSVRC2012_val_00006195.JPEG
deit_insup,1,409,NaN,n01514859,n01514859,NaN,ILSVRC2012_val_00007530.JPEG
deit_insup,1,410,NaN,n01514859,n01514859,NaN,ILSVRC2012_val_00007729.JPEG
deit_insup,1,411,NaN,n01514859,n01514859,NaN,ILSVRC2012_val_00008125.JPEG
deit_insup,1,412,NaN,n01514859,n01514859,NaN,ILSVRC2012_val_00009615.JPEG
deit_insup,1,413,NaN,n01514859,n01514859,NaN,ILSVRC2012_val_00010162.JPEG
deit_insup,1,414,NaN,n01514859,n01514859,NaN,ILSVRC2012_val_00011171.JPEG
deit_insup,1,415,NaN,n01514859,n01514859,NaN,ILSVRC2012_val_00012528.JPEG
deit_insup,1,416,NaN,n01514859,n01514859,NaN,ILSVRC2012_val_00014180.JPEG
deit_insup,1,417,NaN,n01514859,n01514859,NaN,ILSVRC2012_val_00014879.JPEG
deit_insup,1,418,NaN,n01514859,n01514859,NaN,ILSVRC2012_val_00014917.JPEG
deit_insup,1,419,NaN,n01514668,n01514859,NaN,ILSVRC2012_val_00021430.JPEG
deit_insup,1,420,NaN,n02018207,n01514859,NaN,ILSVRC2012_val_00022644.JPEG
deit_insup,1,421,NaN,n01514668,n01514859,NaN,ILSVRC2012_val_00025324.JPEG
deit_insup,1,422,NaN,n01514859,n01514859,NaN,ILSVRC2012_val_00026271.JPEG
deit_insup,1,423,NaN,n01514859,n01514859,NaN,ILSVRC2012_val_00026508.JPEG
deit_insup,1,424,NaN,n01514668,n01514859,NaN,ILSVRC2012_val_00027762.JPEG
deit_insup,1,425,NaN,n01514859,n01514859,NaN,ILSVRC2012_val_00028107.JPEG
deit_insup,1,426,NaN,n01514859,n01514859,NaN,ILSVRC2012_val_00029619.JPEG
deit_insup,1,427,NaN,n01514859,n01514859,NaN,ILSVRC2012_val_00031481.JPEG
deit_insup,1,428,NaN,n01514668,n01514859,NaN,ILSVRC2012_val_00032162.JPEG
deit_insup,1,429,NaN,n01514859,n01514859,NaN,ILSVRC2012_val_00032169.JPEG
deit_insup,1,430,NaN,n01514859,n01514859,NaN,ILSVRC2012_val_00032310.JPEG
deit_insup,1,431,NaN,n01514859,n01514859,NaN,ILSVRC2012_val_00032930.JPEG
deit_insup,1,432,NaN,n01514668,n01514859,NaN,ILSVRC2012_val_00033538.JPEG
deit_insup,1,433,NaN,n01514859,n01514859,NaN,ILSVRC2012_val_00035141.JPEG
deit_insup,1,434,NaN,n01514859,n01514859,NaN,ILSVRC2012_val_00037013.JPEG
deit_insup,1,435,NaN,n01514859,n01514859,NaN,ILSVRC2012_val_00037719.JPEG
deit_insup,1,436,NaN,n01514859,n01514859,NaN,ILSVRC2012_val_00039067.JPEG
deit_insup,1,437,NaN,n01514859,n01514859,NaN,ILSVRC2012_val_00039943.JPEG
deit_insup,1,438,NaN,n01514859,n01514859,NaN,ILSVRC2012_val_00040038.JPEG
deit_insup,1,439,NaN,n01514859,n01514859,NaN,ILSVRC2012_val_00041168.JPEG
deit_insup,1,440,NaN,n01514859,n01514859,NaN,ILSVRC2012_val_00041334.JPEG
deit_insup,1,441,NaN,n01514859,n01514859,NaN,ILSVRC2012_val_00041852.JPEG
deit_insup,1,442,NaN,n01514859,n01514859,NaN,ILSVRC2012_val_00042135.JPEG
deit_insup,1,443,NaN,n01514859,n01514859,NaN,ILSVRC2012_val_00042568.JPEG
deit_insup,1,444,NaN,n01514859,n01514859,NaN,ILSVRC2012_val_00044276.JPEG
deit_insup,1,445,NaN,n01514859,n01514859,NaN,ILSVRC2012_val_00045547.JPEG
deit_insup,1,446,NaN,n01514859,n01514859,NaN,ILSVRC2012_val_00045551.JPEG
deit_insup,1,447,NaN,n01514859,n01514859,NaN,ILSVRC2012_val_00047753.JPEG
deit_insup,1,448,NaN,n01514859,n01514859,NaN,ILSVRC2012_val_00048049.JPEG
deit_insup,1,449,NaN,n01514859,n01514859,NaN,ILSVRC2012_val_00048242.JPEG
deit_insup,1,450,NaN,n01514859,n01514859,NaN,ILSVRC2012_val_00049833.JPEG
deit_insup,1,451,NaN,n01518878,n01518878,NaN,ILSVRC2012_val_00001031.JPEG
deit_insup,1,452,NaN,n01518878,n01518878,NaN,ILSVRC2012_val_00001398.JPEG
deit_insup,1,453,NaN,n01518878,n01518878,NaN,ILSVRC2012_val_00003297.JPEG
deit_insup,1,454,NaN,n01518878,n01518878,NaN,ILSVRC2012_val_00004756.JPEG
deit_insup,1,455,NaN,n01518878,n01518878,NaN,ILSVRC2012_val_00004983.JPEG
deit_insup,1,456,NaN,n01518878,n01518878,NaN,ILSVRC2012_val_00005427.JPEG
deit_insup,1,457,NaN,n01518878,n01518878,NaN,ILSVRC2012_val_00008176.JPEG
deit_insup,1,458,NaN,n01518878,n01518878,NaN,ILSVRC2012_val_00008294.JPEG
deit_insup,1,459,NaN,n01518878,n01518878,NaN,ILSVRC2012_val_00008898.JPEG
deit_insup,1,460,NaN,n01518878,n01518878,NaN,ILSVRC2012_val_00010594.JPEG
deit_insup,1,461,NaN,n01518878,n01518878,NaN,ILSVRC2012_val_00010763.JPEG
deit_insup,1,462,NaN,n01518878,n01518878,NaN,ILSVRC2012_val_00013321.JPEG
deit_insup,1,463,NaN,n01518878,n01518878,NaN,ILSVRC2012_val_00014328.JPEG
deit_insup,1,464,NaN,n01518878,n01518878,NaN,ILSVRC2012_val_00015266.JPEG
deit_insup,1,465,NaN,n01518878,n01518878,NaN,ILSVRC2012_val_00015706.JPEG
deit_insup,1,466,NaN,n01518878,n01518878,NaN,ILSVRC2012_val_00017839.JPEG
deit_insup,1,467,NaN,n01518878,n01518878,NaN,ILSVRC2012_val_00019184.JPEG
deit_insup,1,468,NaN,n01518878,n01518878,NaN,ILSVRC2012_val_00023214.JPEG
deit_insup,1,469,NaN,n01518878,n01518878,NaN,ILSVRC2012_val_00023607.JPEG
deit_insup,1,470,NaN,n01518878,n01518878,NaN,ILSVRC2012_val_00023778.JPEG
deit_insup,1,471,NaN,n01518878,n01518878,NaN,ILSVRC2012_val_00024268.JPEG
deit_insup,1,472,NaN,n01518878,n01518878,NaN,ILSVRC2012_val_00024800.JPEG
deit_insup,1,473,NaN,n01518878,n01518878,NaN,ILSVRC2012_val_00028978.JPEG
deit_insup,1,474,NaN,n01518878,n01518878,NaN,ILSVRC2012_val_00030699.JPEG
deit_insup,1,475,NaN,n01518878,n01518878,NaN,ILSVRC2012_val_00031239.JPEG
deit_insup,1,476,NaN,n01518878,n01518878,NaN,ILSVRC2012_val_00031913.JPEG
deit_insup,1,477,NaN,n01518878,n01518878,NaN,ILSVRC2012_val_00032849.JPEG
deit_insup,1,478,NaN,n01518878,n01518878,NaN,ILSVRC2012_val_00033181.JPEG
deit_insup,1,479,NaN,n01518878,n01518878,NaN,ILSVRC2012_val_00034316.JPEG
deit_insup,1,480,NaN,n01518878,n01518878,NaN,ILSVRC2012_val_00035123.JPEG
deit_insup,1,481,NaN,n01518878,n01518878,NaN,ILSVRC2012_val_00035785.JPEG
deit_insup,1,482,NaN,n01518878,n01518878,NaN,ILSVRC2012_val_00036105.JPEG
deit_insup,1,483,NaN,n01518878,n01518878,NaN,ILSVRC2012_val_00036749.JPEG
deit_insup,1,484,NaN,n01518878,n01518878,NaN,ILSVRC2012_val_00037698.JPEG
deit_insup,1,485,NaN,n01518878,n01518878,NaN,ILSVRC2012_val_00037941.JPEG
deit_insup,1,486,NaN,n01518878,n01518878,NaN,ILSVRC2012_val_00038156.JPEG
deit_insup,1,487,NaN,n01518878,n01518878,NaN,ILSVRC2012_val_00039355.JPEG
deit_insup,1,488,NaN,n01518878,n01518878,NaN,ILSVRC2012_val_00041114.JPEG
deit_insup,1,489,NaN,n01518878,n01518878,NaN,ILSVRC2012_val_00041977.JPEG
deit_insup,1,490,NaN,n01518878,n01518878,NaN,ILSVRC2012_val_00042926.JPEG
deit_insup,1,491,NaN,n01518878,n01518878,NaN,ILSVRC2012_val_00043764.JPEG
deit_insup,1,492,NaN,n01518878,n01518878,NaN,ILSVRC2012_val_00044483.JPEG
deit_insup,1,493,NaN,n01518878,n01518878,NaN,ILSVRC2012_val_00044624.JPEG
deit_insup,1,494,NaN,n01518878,n01518878,NaN,ILSVRC2012_val_00044975.JPEG
deit_insup,1,495,NaN,n01518878,n01518878,NaN,ILSVRC2012_val_00045402.JPEG
deit_insup,1,496,NaN,n01518878,n01518878,NaN,ILSVRC2012_val_00046260.JPEG
deit_insup,1,497,NaN,n01518878,n01518878,NaN,ILSVRC2012_val_00046654.JPEG
deit_insup,1,498,NaN,n01518878,n01518878,NaN,ILSVRC2012_val_00047400.JPEG
deit_insup,1,499,NaN,n01518878,n01518878,NaN,ILSVRC2012_val_00048600.JPEG
deit_insup,1,500,NaN,n01518878,n01518878,NaN,ILSVRC2012_val_00049090.JPEG
deit_insup,1,501,NaN,n01530575,n01530575,NaN,ILSVRC2012_val_00000651.JPEG
deit_insup,1,502,NaN,n01530575,n01530575,NaN,ILSVRC2012_val_00000747.JPEG
deit_insup,1,503,NaN,n01530575,n01530575,NaN,ILSVRC2012_val_00002023.JPEG
deit_insup,1,504,NaN,n01530575,n01530575,NaN,ILSVRC2012_val_00002191.JPEG
deit_insup,1,505,NaN,n01530575,n01530575,NaN,ILSVRC2012_val_00002425.JPEG
deit_insup,1,506,NaN,n01530575,n01530575,NaN,ILSVRC2012_val_00002730.JPEG
deit_insup,1,507,NaN,n01530575,n01530575,NaN,ILSVRC2012_val_00004006.JPEG
deit_insup,1,508,NaN,n01530575,n01530575,NaN,ILSVRC2012_val_00006526.JPEG
deit_insup,1,509,NaN,n01530575,n01530575,NaN,ILSVRC2012_val_00006763.JPEG
deit_insup,1,510,NaN,n01530575,n01530575,NaN,ILSVRC2012_val_00010393.JPEG
deit_insup,1,511,NaN,n01530575,n01530575,NaN,ILSVRC2012_val_00010689.JPEG
deit_insup,1,512,NaN,n01530575,n01530575,NaN,ILSVRC2012_val_00010999.JPEG
deit_insup,1,513,NaN,n01530575,n01530575,NaN,ILSVRC2012_val_00011249.JPEG
deit_insup,1,514,NaN,n01530575,n01530575,NaN,ILSVRC2012_val_00012814.JPEG
deit_insup,1,515,NaN,n01530575,n01530575,NaN,ILSVRC2012_val_00013512.JPEG
deit_insup,1,516,NaN,n01530575,n01530575,NaN,ILSVRC2012_val_00015223.JPEG
deit_insup,1,517,NaN,n01530575,n01530575,NaN,ILSVRC2012_val_00016476.JPEG
deit_insup,1,518,NaN,n01530575,n01530575,NaN,ILSVRC2012_val_00016548.JPEG
deit_insup,1,519,NaN,n01530575,n01530575,NaN,ILSVRC2012_val_00020889.JPEG
deit_insup,1,520,NaN,n01530575,n01530575,NaN,ILSVRC2012_val_00023441.JPEG
deit_insup,1,521,NaN,n01530575,n01530575,NaN,ILSVRC2012_val_00023698.JPEG
deit_insup,1,522,NaN,n02027492,n01530575,NaN,ILSVRC2012_val_00023766.JPEG
deit_insup,1,523,NaN,n01530575,n01530575,NaN,ILSVRC2012_val_00025347.JPEG
deit_insup,1,524,NaN,n01530575,n01530575,NaN,ILSVRC2012_val_00025488.JPEG
deit_insup,1,525,NaN,n01530575,n01530575,NaN,ILSVRC2012_val_00026673.JPEG
deit_insup,1,526,NaN,n01530575,n01530575,NaN,ILSVRC2012_val_00026784.JPEG
deit_insup,1,527,NaN,n01530575,n01530575,NaN,ILSVRC2012_val_00027374.JPEG
deit_insup,1,528,NaN,n01530575,n01530575,NaN,ILSVRC2012_val_00027507.JPEG
deit_insup,1,529,NaN,n01530575,n01530575,NaN,ILSVRC2012_val_00027619.JPEG
deit_insup,1,530,NaN,n01530575,n01530575,NaN,ILSVRC2012_val_00028902.JPEG
deit_insup,1,531,NaN,n01530575,n01530575,NaN,ILSVRC2012_val_00030224.JPEG
deit_insup,1,532,NaN,n01530575,n01530575,NaN,ILSVRC2012_val_00033092.JPEG
deit_insup,1,533,NaN,n01530575,n01530575,NaN,ILSVRC2012_val_00033580.JPEG
deit_insup,1,534,NaN,n01530575,n01530575,NaN,ILSVRC2012_val_00034018.JPEG
deit_insup,1,535,NaN,n01558993,n01530575,NaN,ILSVRC2012_val_00034864.JPEG
deit_insup,1,536,NaN,n01530575,n01530575,NaN,ILSVRC2012_val_00035540.JPEG
deit_insup,1,537,NaN,n01530575,n01530575,NaN,ILSVRC2012_val_00035872.JPEG
deit_insup,1,538,NaN,n01530575,n01530575,NaN,ILSVRC2012_val_00037116.JPEG
deit_insup,1,539,NaN,n01530575,n01530575,NaN,ILSVRC2012_val_00037748.JPEG
deit_insup,1,540,NaN,n01530575,n01530575,NaN,ILSVRC2012_val_00038895.JPEG
deit_insup,1,541,NaN,n01530575,n01530575,NaN,ILSVRC2012_val_00043788.JPEG
deit_insup,1,542,NaN,n01530575,n01530575,NaN,ILSVRC2012_val_00045172.JPEG
deit_insup,1,543,NaN,n01530575,n01530575,NaN,ILSVRC2012_val_00045389.JPEG
deit_insup,1,544,NaN,n01530575,n01530575,NaN,ILSVRC2012_val_00045415.JPEG
deit_insup,1,545,NaN,n01530575,n01530575,NaN,ILSVRC2012_val_00045611.JPEG
deit_insup,1,546,NaN,n01530575,n01530575,NaN,ILSVRC2012_val_00046751.JPEG
deit_insup,1,547,NaN,n01531178,n01530575,NaN,ILSVRC2012_val_00046833.JPEG
deit_insup,1,548,NaN,n01530575,n01530575,NaN,ILSVRC2012_val_00047878.JPEG
deit_insup,1,549,NaN,n01530575,n01530575,NaN,ILSVRC2012_val_00047914.JPEG
deit_insup,1,550,NaN,n01530575,n01530575,NaN,ILSVRC2012_val_00049568.JPEG
deit_insup,1,551,NaN,n01531178,n01531178,NaN,ILSVRC2012_val_00000570.JPEG
deit_insup,1,552,NaN,n01531178,n01531178,NaN,ILSVRC2012_val_00001274.JPEG
deit_insup,1,553,NaN,n01531178,n01531178,NaN,ILSVRC2012_val_00002668.JPEG
deit_insup,1,554,NaN,n01531178,n01531178,NaN,ILSVRC2012_val_00003548.JPEG
deit_insup,1,555,NaN,n01531178,n01531178,NaN,ILSVRC2012_val_00003816.JPEG
deit_insup,1,556,NaN,n01531178,n01531178,NaN,ILSVRC2012_val_00004243.JPEG
deit_insup,1,557,NaN,n01531178,n01531178,NaN,ILSVRC2012_val_00004893.JPEG
deit_insup,1,558,NaN,n01531178,n01531178,NaN,ILSVRC2012_val_00005287.JPEG
deit_insup,1,559,NaN,n01531178,n01531178,NaN,ILSVRC2012_val_00005567.JPEG
deit_insup,1,560,NaN,n01531178,n01531178,NaN,ILSVRC2012_val_00009831.JPEG
deit_insup,1,561,NaN,n01531178,n01531178,NaN,ILSVRC2012_val_00010409.JPEG
deit_insup,1,562,NaN,n01531178,n01531178,NaN,ILSVRC2012_val_00013270.JPEG
deit_insup,1,563,NaN,n01531178,n01531178,NaN,ILSVRC2012_val_00013407.JPEG
deit_insup,1,564,NaN,n01531178,n01531178,NaN,ILSVRC2012_val_00013902.JPEG
deit_insup,1,565,NaN,n01531178,n01531178,NaN,ILSVRC2012_val_00013998.JPEG
deit_insup,1,566,NaN,n01531178,n01531178,NaN,ILSVRC2012_val_00015431.JPEG
deit_insup,1,567,NaN,n01531178,n01531178,NaN,ILSVRC2012_val_00015863.JPEG
deit_insup,1,568,NaN,n01531178,n01531178,NaN,ILSVRC2012_val_00015903.JPEG
deit_insup,1,569,NaN,n01531178,n01531178,NaN,ILSVRC2012_val_00016252.JPEG
deit_insup,1,570,NaN,n01531178,n01531178,NaN,ILSVRC2012_val_00016538.JPEG
deit_insup,1,571,NaN,n01531178,n01531178,NaN,ILSVRC2012_val_00017391.JPEG
deit_insup,1,572,NaN,n01531178,n01531178,NaN,ILSVRC2012_val_00019236.JPEG
deit_insup,1,573,NaN,n01531178,n01531178,NaN,ILSVRC2012_val_00019744.JPEG
deit_insup,1,574,NaN,n01531178,n01531178,NaN,ILSVRC2012_val_00024256.JPEG
deit_insup,1,575,NaN,n01531178,n01531178,NaN,ILSVRC2012_val_00025151.JPEG
deit_insup,1,576,NaN,n01531178,n01531178,NaN,ILSVRC2012_val_00025507.JPEG
deit_insup,1,577,NaN,n01531178,n01531178,NaN,ILSVRC2012_val_00025535.JPEG
deit_insup,1,578,NaN,n01531178,n01531178,NaN,ILSVRC2012_val_00025888.JPEG
deit_insup,1,579,NaN,n01531178,n01531178,NaN,ILSVRC2012_val_00026279.JPEG
deit_insup,1,580,NaN,n01531178,n01531178,NaN,ILSVRC2012_val_00028063.JPEG
deit_insup,1,581,NaN,n01531178,n01531178,NaN,ILSVRC2012_val_00029581.JPEG
deit_insup,1,582,NaN,n01531178,n01531178,NaN,ILSVRC2012_val_00029740.JPEG
deit_insup,1,583,NaN,n01531178,n01531178,NaN,ILSVRC2012_val_00030071.JPEG
deit_insup,1,584,NaN,n01531178,n01531178,NaN,ILSVRC2012_val_00030320.JPEG
deit_insup,1,585,NaN,n01531178,n01531178,NaN,ILSVRC2012_val_00031086.JPEG
deit_insup,1,586,NaN,n01531178,n01531178,NaN,ILSVRC2012_val_00031630.JPEG
deit_insup,1,587,NaN,n01531178,n01531178,NaN,ILSVRC2012_val_00032154.JPEG
deit_insup,1,588,NaN,n01531178,n01531178,NaN,ILSVRC2012_val_00032359.JPEG
deit_insup,1,589,NaN,n01531178,n01531178,NaN,ILSVRC2012_val_00032710.JPEG
deit_insup,1,590,NaN,n01531178,n01531178,NaN,ILSVRC2012_val_00032855.JPEG
deit_insup,1,591,NaN,n01531178,n01531178,NaN,ILSVRC2012_val_00032993.JPEG
deit_insup,1,592,NaN,n01531178,n01531178,NaN,ILSVRC2012_val_00034250.JPEG
deit_insup,1,593,NaN,n01531178,n01531178,NaN,ILSVRC2012_val_00035254.JPEG
deit_insup,1,594,NaN,n01531178,n01531178,NaN,ILSVRC2012_val_00035833.JPEG
deit_insup,1,595,NaN,n01531178,n01531178,NaN,ILSVRC2012_val_00037611.JPEG
deit_insup,1,596,NaN,n01531178,n01531178,NaN,ILSVRC2012_val_00041836.JPEG
deit_insup,1,597,NaN,n01531178,n01531178,NaN,ILSVRC2012_val_00042032.JPEG
deit_insup,1,598,NaN,n01531178,n01531178,NaN,ILSVRC2012_val_00044706.JPEG
deit_insup,1,599,NaN,n01531178,n01531178,NaN,ILSVRC2012_val_00047029.JPEG
deit_insup,1,600,NaN,n01531178,n01531178,NaN,ILSVRC2012_val_00048710.JPEG
deit_insup,1,601,NaN,n01532829,n01532829,NaN,ILSVRC2012_val_00000873.JPEG
deit_insup,1,602,NaN,n01532829,n01532829,NaN,ILSVRC2012_val_00001556.JPEG
deit_insup,1,603,NaN,n01532829,n01532829,NaN,ILSVRC2012_val_00002357.JPEG
deit_insup,1,604,NaN,n01532829,n01532829,NaN,ILSVRC2012_val_00004375.JPEG
deit_insup,1,605,NaN,n01532829,n01532829,NaN,ILSVRC2012_val_00004747.JPEG
deit_insup,1,606,NaN,n01532829,n01532829,NaN,ILSVRC2012_val_00004749.JPEG
deit_insup,1,607,NaN,n01532829,n01532829,NaN,ILSVRC2012_val_00005336.JPEG
deit_insup,1,608,NaN,n01532829,n01532829,NaN,ILSVRC2012_val_00005848.JPEG
deit_insup,1,609,NaN,n01532829,n01532829,NaN,ILSVRC2012_val_00006597.JPEG
deit_insup,1,610,NaN,n01532829,n01532829,NaN,ILSVRC2012_val_00006835.JPEG
deit_insup,1,611,NaN,n01532829,n01532829,NaN,ILSVRC2012_val_00007129.JPEG
deit_insup,1,612,NaN,n01532829,n01532829,NaN,ILSVRC2012_val_00007237.JPEG
deit_insup,1,613,NaN,n01532829,n01532829,NaN,ILSVRC2012_val_00009239.JPEG
deit_insup,1,614,NaN,n01532829,n01532829,NaN,ILSVRC2012_val_00010310.JPEG
deit_insup,1,615,NaN,n01532829,n01532829,NaN,ILSVRC2012_val_00010443.JPEG
deit_insup,1,616,NaN,n01558993,n01532829,NaN,ILSVRC2012_val_00011056.JPEG
deit_insup,1,617,NaN,n01531178,n01532829,NaN,ILSVRC2012_val_00013209.JPEG
deit_insup,1,618,NaN,n01532829,n01532829,NaN,ILSVRC2012_val_00013367.JPEG
deit_insup,1,619,NaN,n01532829,n01532829,NaN,ILSVRC2012_val_00013456.JPEG
deit_insup,1,620,NaN,n01532829,n01532829,NaN,ILSVRC2012_val_00015830.JPEG
deit_insup,1,621,NaN,n01532829,n01532829,NaN,ILSVRC2012_val_00015964.JPEG
deit_insup,1,622,NaN,n01532829,n01532829,NaN,ILSVRC2012_val_00016198.JPEG
deit_insup,1,623,NaN,n01532829,n01532829,NaN,ILSVRC2012_val_00017577.JPEG
deit_insup,1,624,NaN,n01532829,n01532829,NaN,ILSVRC2012_val_00018162.JPEG
deit_insup,1,625,NaN,n01532829,n01532829,NaN,ILSVRC2012_val_00018699.JPEG
deit_insup,1,626,NaN,n01532829,n01532829,NaN,ILSVRC2012_val_00020495.JPEG
deit_insup,1,627,NaN,n01532829,n01532829,NaN,ILSVRC2012_val_00021523.JPEG
deit_insup,1,628,NaN,n01532829,n01532829,NaN,ILSVRC2012_val_00022727.JPEG
deit_insup,1,629,NaN,n01532829,n01532829,NaN,ILSVRC2012_val_00022889.JPEG
deit_insup,1,630,NaN,n01532829,n01532829,NaN,ILSVRC2012_val_00023162.JPEG
deit_insup,1,631,NaN,n01532829,n01532829,NaN,ILSVRC2012_val_00023942.JPEG
deit_insup,1,632,NaN,n01532829,n01532829,NaN,ILSVRC2012_val_00026123.JPEG
deit_insup,1,633,NaN,n01532829,n01532829,NaN,ILSVRC2012_val_00026755.JPEG
deit_insup,1,634,NaN,n01532829,n01532829,NaN,ILSVRC2012_val_00026776.JPEG
deit_insup,1,635,NaN,n01532829,n01532829,NaN,ILSVRC2012_val_00028791.JPEG
deit_insup,1,636,NaN,n01532829,n01532829,NaN,ILSVRC2012_val_00029709.JPEG
deit_insup,1,637,NaN,n01532829,n01532829,NaN,ILSVRC2012_val_00030042.JPEG
deit_insup,1,638,NaN,n01532829,n01532829,NaN,ILSVRC2012_val_00031171.JPEG
deit_insup,1,639,NaN,n01532829,n01532829,NaN,ILSVRC2012_val_00036284.JPEG
deit_insup,1,640,NaN,n01532829,n01532829,NaN,ILSVRC2012_val_00038091.JPEG
deit_insup,1,641,NaN,n01532829,n01532829,NaN,ILSVRC2012_val_00038160.JPEG
deit_insup,1,642,NaN,n01532829,n01532829,NaN,ILSVRC2012_val_00038372.JPEG
deit_insup,1,643,NaN,n01532829,n01532829,NaN,ILSVRC2012_val_00042370.JPEG
deit_insup,1,644,NaN,n01532829,n01532829,NaN,ILSVRC2012_val_00043392.JPEG
deit_insup,1,645,NaN,n01532829,n01532829,NaN,ILSVRC2012_val_00045623.JPEG
deit_insup,1,646,NaN,n01532829,n01532829,NaN,ILSVRC2012_val_00047688.JPEG
deit_insup,1,647,NaN,n01530575,n01532829,NaN,ILSVRC2012_val_00048144.JPEG
deit_insup,1,648,NaN,n01532829,n01532829,NaN,ILSVRC2012_val_00048152.JPEG
deit_insup,1,649,NaN,n01532829,n01532829,NaN,ILSVRC2012_val_00048437.JPEG
deit_insup,1,650,NaN,n01532829,n01532829,NaN,ILSVRC2012_val_00048642.JPEG
deit_insup,1,651,NaN,n01534433,n01534433,NaN,ILSVRC2012_val_00000247.JPEG
deit_insup,1,652,NaN,n01534433,n01534433,NaN,ILSVRC2012_val_00000713.JPEG
deit_insup,1,653,NaN,n01534433,n01534433,NaN,ILSVRC2012_val_00001915.JPEG
deit_insup,1,654,NaN,n01534433,n01534433,NaN,ILSVRC2012_val_00003116.JPEG
deit_insup,1,655,NaN,n01534433,n01534433,NaN,ILSVRC2012_val_00003878.JPEG
deit_insup,1,656,NaN,n01534433,n01534433,NaN,ILSVRC2012_val_00003903.JPEG
deit_insup,1,657,NaN,n01534433,n01534433,NaN,ILSVRC2012_val_00004245.JPEG
deit_insup,1,658,NaN,n01534433,n01534433,NaN,ILSVRC2012_val_00004577.JPEG
deit_insup,1,659,NaN,n01534433,n01534433,NaN,ILSVRC2012_val_00006326.JPEG
deit_insup,1,660,NaN,n01534433,n01534433,NaN,ILSVRC2012_val_00007853.JPEG
deit_insup,1,661,NaN,n01534433,n01534433,NaN,ILSVRC2012_val_00007872.JPEG
deit_insup,1,662,NaN,n01534433,n01534433,NaN,ILSVRC2012_val_00009351.JPEG
deit_insup,1,663,NaN,n01534433,n01534433,NaN,ILSVRC2012_val_00010456.JPEG
deit_insup,1,664,NaN,n01534433,n01534433,NaN,ILSVRC2012_val_00011178.JPEG
deit_insup,1,665,NaN,n01534433,n01534433,NaN,ILSVRC2012_val_00011841.JPEG
deit_insup,1,666,NaN,n01534433,n01534433,NaN,ILSVRC2012_val_00011915.JPEG
deit_insup,1,667,NaN,n01534433,n01534433,NaN,ILSVRC2012_val_00012058.JPEG
deit_insup,1,668,NaN,n01534433,n01534433,NaN,ILSVRC2012_val_00013277.JPEG
deit_insup,1,669,NaN,n01534433,n01534433,NaN,ILSVRC2012_val_00013504.JPEG
deit_insup,1,670,NaN,n01534433,n01534433,NaN,ILSVRC2012_val_00013945.JPEG
deit_insup,1,671,NaN,n01534433,n01534433,NaN,ILSVRC2012_val_00014108.JPEG
deit_insup,1,672,NaN,n01534433,n01534433,NaN,ILSVRC2012_val_00014139.JPEG
deit_insup,1,673,NaN,n01534433,n01534433,NaN,ILSVRC2012_val_00015216.JPEG
deit_insup,1,674,NaN,n01534433,n01534433,NaN,ILSVRC2012_val_00015410.JPEG
deit_insup,1,675,NaN,n01534433,n01534433,NaN,ILSVRC2012_val_00015416.JPEG
deit_insup,1,676,NaN,n01534433,n01534433,NaN,ILSVRC2012_val_00016677.JPEG
deit_insup,1,677,NaN,n01534433,n01534433,NaN,ILSVRC2012_val_00017384.JPEG
deit_insup,1,678,NaN,n01534433,n01534433,NaN,ILSVRC2012_val_00017712.JPEG
deit_insup,1,679,NaN,n01534433,n01534433,NaN,ILSVRC2012_val_00017970.JPEG
deit_insup,1,680,NaN,n01534433,n01534433,NaN,ILSVRC2012_val_00021650.JPEG
deit_insup,1,681,NaN,n01534433,n01534433,NaN,ILSVRC2012_val_00023125.JPEG
deit_insup,1,682,NaN,n01534433,n01534433,NaN,ILSVRC2012_val_00023850.JPEG
deit_insup,1,683,NaN,n01534433,n01534433,NaN,ILSVRC2012_val_00024884.JPEG
deit_insup,1,684,NaN,n01534433,n01534433,NaN,ILSVRC2012_val_00026687.JPEG
deit_insup,1,685,NaN,n01534433,n01534433,NaN,ILSVRC2012_val_00027831.JPEG
deit_insup,1,686,NaN,n01534433,n01534433,NaN,ILSVRC2012_val_00029999.JPEG
deit_insup,1,687,NaN,n01534433,n01534433,NaN,ILSVRC2012_val_00030544.JPEG
deit_insup,1,688,NaN,n01534433,n01534433,NaN,ILSVRC2012_val_00030657.JPEG
deit_insup,1,689,NaN,n01534433,n01534433,NaN,ILSVRC2012_val_00030911.JPEG
deit_insup,1,690,NaN,n01534433,n01534433,NaN,ILSVRC2012_val_00032025.JPEG
deit_insup,1,691,NaN,n01534433,n01534433,NaN,ILSVRC2012_val_00035389.JPEG
deit_insup,1,692,NaN,n01534433,n01534433,NaN,ILSVRC2012_val_00036008.JPEG
deit_insup,1,693,NaN,n01534433,n01534433,NaN,ILSVRC2012_val_00036042.JPEG
deit_insup,1,694,NaN,n01534433,n01534433,NaN,ILSVRC2012_val_00037239.JPEG
deit_insup,1,695,NaN,n01534433,n01534433,NaN,ILSVRC2012_val_00038794.JPEG
deit_insup,1,696,NaN,n01534433,n01534433,NaN,ILSVRC2012_val_00039801.JPEG
deit_insup,1,697,NaN,n01534433,n01534433,NaN,ILSVRC2012_val_00040606.JPEG
deit_insup,1,698,NaN,n01534433,n01534433,NaN,ILSVRC2012_val_00045480.JPEG
deit_insup,1,699,NaN,n01534433,n01534433,NaN,ILSVRC2012_val_00046797.JPEG
deit_insup,1,700,NaN,n01534433,n01534433,NaN,ILSVRC2012_val_00047333.JPEG
deit_insup,1,701,NaN,n01537544,n01537544,NaN,ILSVRC2012_val_00000414.JPEG
deit_insup,1,702,NaN,n01537544,n01537544,NaN,ILSVRC2012_val_00001462.JPEG
deit_insup,1,703,NaN,n01537544,n01537544,NaN,ILSVRC2012_val_00002071.JPEG
deit_insup,1,704,NaN,n01537544,n01537544,NaN,ILSVRC2012_val_00002449.JPEG
deit_insup,1,705,NaN,n01537544,n01537544,NaN,ILSVRC2012_val_00003279.JPEG
deit_insup,1,706,NaN,n01537544,n01537544,NaN,ILSVRC2012_val_00003557.JPEG
deit_insup,1,707,NaN,n01537544,n01537544,NaN,ILSVRC2012_val_00005156.JPEG
deit_insup,1,708,NaN,n01537544,n01537544,NaN,ILSVRC2012_val_00005931.JPEG
deit_insup,1,709,NaN,n01537544,n01537544,NaN,ILSVRC2012_val_00006328.JPEG
deit_insup,1,710,NaN,n01537544,n01537544,NaN,ILSVRC2012_val_00008420.JPEG
deit_insup,1,711,NaN,n01537544,n01537544,NaN,ILSVRC2012_val_00010339.JPEG
deit_insup,1,712,NaN,n01537544,n01537544,NaN,ILSVRC2012_val_00010352.JPEG
deit_insup,1,713,NaN,n01537544,n01537544,NaN,ILSVRC2012_val_00011646.JPEG
deit_insup,1,714,NaN,n01537544,n01537544,NaN,ILSVRC2012_val_00012939.JPEG
deit_insup,1,715,NaN,n01537544,n01537544,NaN,ILSVRC2012_val_00018676.JPEG
deit_insup,1,716,NaN,n01537544,n01537544,NaN,ILSVRC2012_val_00020178.JPEG
deit_insup,1,717,NaN,n01537544,n01537544,NaN,ILSVRC2012_val_00021300.JPEG
deit_insup,1,718,NaN,n01537544,n01537544,NaN,ILSVRC2012_val_00022076.JPEG
deit_insup,1,719,NaN,n01537544,n01537544,NaN,ILSVRC2012_val_00023187.JPEG
deit_insup,1,720,NaN,n01537544,n01537544,NaN,ILSVRC2012_val_00023438.JPEG
deit_insup,1,721,NaN,n01537544,n01537544,NaN,ILSVRC2012_val_00023573.JPEG
deit_insup,1,722,NaN,n01532829,n01537544,NaN,ILSVRC2012_val_00025037.JPEG
deit_insup,1,723,NaN,n01537544,n01537544,NaN,ILSVRC2012_val_00025428.JPEG
deit_insup,1,724,NaN,n01537544,n01537544,NaN,ILSVRC2012_val_00026259.JPEG
deit_insup,1,725,NaN,n01537544,n01537544,NaN,ILSVRC2012_val_00027145.JPEG
deit_insup,1,726,NaN,n01537544,n01537544,NaN,ILSVRC2012_val_00027254.JPEG
deit_insup,1,727,NaN,n01537544,n01537544,NaN,ILSVRC2012_val_00027498.JPEG
deit_insup,1,728,NaN,n01537544,n01537544,NaN,ILSVRC2012_val_00027811.JPEG
deit_insup,1,729,NaN,n01537544,n01537544,NaN,ILSVRC2012_val_00028024.JPEG
deit_insup,1,730,NaN,n01537544,n01537544,NaN,ILSVRC2012_val_00029310.JPEG
deit_insup,1,731,NaN,n01537544,n01537544,NaN,ILSVRC2012_val_00031512.JPEG
deit_insup,1,732,NaN,n01537544,n01537544,NaN,ILSVRC2012_val_00031716.JPEG
deit_insup,1,733,NaN,n01537544,n01537544,NaN,ILSVRC2012_val_00031987.JPEG
deit_insup,1,734,NaN,n01537544,n01537544,NaN,ILSVRC2012_val_00032164.JPEG
deit_insup,1,735,NaN,n01537544,n01537544,NaN,ILSVRC2012_val_00033196.JPEG
deit_insup,1,736,NaN,n01537544,n01537544,NaN,ILSVRC2012_val_00035565.JPEG
deit_insup,1,737,NaN,n01537544,n01537544,NaN,ILSVRC2012_val_00035735.JPEG
deit_insup,1,738,NaN,n01537544,n01537544,NaN,ILSVRC2012_val_00036431.JPEG
deit_insup,1,739,NaN,n01537544,n01537544,NaN,ILSVRC2012_val_00037454.JPEG
deit_insup,1,740,NaN,n01537544,n01537544,NaN,ILSVRC2012_val_00039571.JPEG
deit_insup,1,741,NaN,n01537544,n01537544,NaN,ILSVRC2012_val_00040071.JPEG
deit_insup,1,742,NaN,n01537544,n01537544,NaN,ILSVRC2012_val_00041252.JPEG
deit_insup,1,743,NaN,n01537544,n01537544,NaN,ILSVRC2012_val_00041595.JPEG
deit_insup,1,744,NaN,n01537544,n01537544,NaN,ILSVRC2012_val_00043965.JPEG
deit_insup,1,745,NaN,n01537544,n01537544,NaN,ILSVRC2012_val_00044540.JPEG
deit_insup,1,746,NaN,n01537544,n01537544,NaN,ILSVRC2012_val_00046071.JPEG
deit_insup,1,747,NaN,n01537544,n01537544,NaN,ILSVRC2012_val_00047272.JPEG
deit_insup,1,748,NaN,n01537544,n01537544,NaN,ILSVRC2012_val_00048659.JPEG
deit_insup,1,749,NaN,n01537544,n01537544,NaN,ILSVRC2012_val_00048732.JPEG
deit_insup,1,750,NaN,n01537544,n01537544,NaN,ILSVRC2012_val_00048829.JPEG
deit_insup,1,751,NaN,n01558993,n01558993,NaN,ILSVRC2012_val_00001598.JPEG
deit_insup,1,752,NaN,n01558993,n01558993,NaN,ILSVRC2012_val_00002825.JPEG
deit_insup,1,753,NaN,n01558993,n01558993,NaN,ILSVRC2012_val_00005412.JPEG
deit_insup,1,754,NaN,n01558993,n01558993,NaN,ILSVRC2012_val_00005594.JPEG
deit_insup,1,755,NaN,n01558993,n01558993,NaN,ILSVRC2012_val_00005833.JPEG
deit_insup,1,756,NaN,n01558993,n01558993,NaN,ILSVRC2012_val_00006030.JPEG
deit_insup,1,757,NaN,n01558993,n01558993,NaN,ILSVRC2012_val_00007667.JPEG
deit_insup,1,758,NaN,n01558993,n01558993,NaN,ILSVRC2012_val_00009092.JPEG
deit_insup,1,759,NaN,n01558993,n01558993,NaN,ILSVRC2012_val_00010767.JPEG
deit_insup,1,760,NaN,n01558993,n01558993,NaN,ILSVRC2012_val_00012651.JPEG
deit_insup,1,761,NaN,n01558993,n01558993,NaN,ILSVRC2012_val_00014336.JPEG
deit_insup,1,762,NaN,n01558993,n01558993,NaN,ILSVRC2012_val_00014362.JPEG
deit_insup,1,763,NaN,n01558993,n01558993,NaN,ILSVRC2012_val_00017660.JPEG
deit_insup,1,764,NaN,n01558993,n01558993,NaN,ILSVRC2012_val_00018692.JPEG
deit_insup,1,765,NaN,n01558993,n01558993,NaN,ILSVRC2012_val_00019038.JPEG
deit_insup,1,766,NaN,n01558993,n01558993,NaN,ILSVRC2012_val_00019082.JPEG
deit_insup,1,767,NaN,n01558993,n01558993,NaN,ILSVRC2012_val_00019208.JPEG
deit_insup,1,768,NaN,n01558993,n01558993,NaN,ILSVRC2012_val_00020610.JPEG
deit_insup,1,769,NaN,n01558993,n01558993,NaN,ILSVRC2012_val_00021239.JPEG
deit_insup,1,770,NaN,n01558993,n01558993,NaN,ILSVRC2012_val_00022186.JPEG
deit_insup,1,771,NaN,n01558993,n01558993,NaN,ILSVRC2012_val_00022407.JPEG
deit_insup,1,772,NaN,n01558993,n01558993,NaN,ILSVRC2012_val_00024704.JPEG
deit_insup,1,773,NaN,n01558993,n01558993,NaN,ILSVRC2012_val_00025035.JPEG
deit_insup,1,774,NaN,n01558993,n01558993,NaN,ILSVRC2012_val_00027535.JPEG
deit_insup,1,775,NaN,n01558993,n01558993,NaN,ILSVRC2012_val_00028224.JPEG
deit_insup,1,776,NaN,n01558993,n01558993,NaN,ILSVRC2012_val_00028607.JPEG
deit_insup,1,777,NaN,n01558993,n01558993,NaN,ILSVRC2012_val_00029417.JPEG
deit_insup,1,778,NaN,n01558993,n01558993,NaN,ILSVRC2012_val_00029495.JPEG
deit_insup,1,779,NaN,n01558993,n01558993,NaN,ILSVRC2012_val_00029627.JPEG
deit_insup,1,780,NaN,n01558993,n01558993,NaN,ILSVRC2012_val_00030475.JPEG
deit_insup,1,781,NaN,n01558993,n01558993,NaN,ILSVRC2012_val_00030701.JPEG
deit_insup,1,782,NaN,n01558993,n01558993,NaN,ILSVRC2012_val_00031273.JPEG
deit_insup,1,783,NaN,n01558993,n01558993,NaN,ILSVRC2012_val_00034482.JPEG
deit_insup,1,784,NaN,n01558993,n01558993,NaN,ILSVRC2012_val_00035060.JPEG
deit_insup,1,785,NaN,n01558993,n01558993,NaN,ILSVRC2012_val_00035131.JPEG
deit_insup,1,786,NaN,n01558993,n01558993,NaN,ILSVRC2012_val_00035807.JPEG
deit_insup,1,787,NaN,n01558993,n01558993,NaN,ILSVRC2012_val_00038488.JPEG
deit_insup,1,788,NaN,n01558993,n01558993,NaN,ILSVRC2012_val_00039814.JPEG
deit_insup,1,789,NaN,n01558993,n01558993,NaN,ILSVRC2012_val_00039913.JPEG
deit_insup,1,790,NaN,n01558993,n01558993,NaN,ILSVRC2012_val_00040426.JPEG
deit_insup,1,791,NaN,n01558993,n01558993,NaN,ILSVRC2012_val_00040538.JPEG
deit_insup,1,792,NaN,n01558993,n01558993,NaN,ILSVRC2012_val_00041152.JPEG
deit_insup,1,793,NaN,n01558993,n01558993,NaN,ILSVRC2012_val_00041944.JPEG
deit_insup,1,794,NaN,n01558993,n01558993,NaN,ILSVRC2012_val_00043300.JPEG
deit_insup,1,795,NaN,n01558993,n01558993,NaN,ILSVRC2012_val_00044311.JPEG
deit_insup,1,796,NaN,n01558993,n01558993,NaN,ILSVRC2012_val_00044378.JPEG
deit_insup,1,797,NaN,n01530575,n01558993,NaN,ILSVRC2012_val_00045150.JPEG
deit_insup,1,798,NaN,n01558993,n01558993,NaN,ILSVRC2012_val_00045294.JPEG
deit_insup,1,799,NaN,n01558993,n01558993,NaN,ILSVRC2012_val_00047592.JPEG
deit_insup,1,800,NaN,n01558993,n01558993,NaN,ILSVRC2012_val_00049776.JPEG
deit_insup,1,801,NaN,n01560419,n01560419,NaN,ILSVRC2012_val_00000198.JPEG
deit_insup,1,802,NaN,n01560419,n01560419,NaN,ILSVRC2012_val_00000217.JPEG
deit_insup,1,803,NaN,n01560419,n01560419,NaN,ILSVRC2012_val_00000439.JPEG
deit_insup,1,804,NaN,n01560419,n01560419,NaN,ILSVRC2012_val_00000638.JPEG
deit_insup,1,805,NaN,n01560419,n01560419,NaN,ILSVRC2012_val_00001024.JPEG
deit_insup,1,806,NaN,n01797886,n01560419,NaN,ILSVRC2012_val_00001720.JPEG
deit_insup,1,807,NaN,n01560419,n01560419,NaN,ILSVRC2012_val_00001751.JPEG
deit_insup,1,808,NaN,n01560419,n01560419,NaN,ILSVRC2012_val_00002052.JPEG
deit_insup,1,809,NaN,n01560419,n01560419,NaN,ILSVRC2012_val_00004037.JPEG
deit_insup,1,810,NaN,n01560419,n01560419,NaN,ILSVRC2012_val_00006321.JPEG
deit_insup,1,811,NaN,n01560419,n01560419,NaN,ILSVRC2012_val_00006603.JPEG
deit_insup,1,812,NaN,n01833805,n01560419,NaN,ILSVRC2012_val_00007263.JPEG
deit_insup,1,813,NaN,n01560419,n01560419,NaN,ILSVRC2012_val_00009807.JPEG
deit_insup,1,814,NaN,n01616318,n01560419,NaN,ILSVRC2012_val_00011267.JPEG
deit_insup,1,815,NaN,n01560419,n01560419,NaN,ILSVRC2012_val_00011331.JPEG
deit_insup,1,816,NaN,n01560419,n01560419,NaN,ILSVRC2012_val_00011420.JPEG
deit_insup,1,817,NaN,n01560419,n01560419,NaN,ILSVRC2012_val_00012870.JPEG
deit_insup,1,818,NaN,n01560419,n01560419,NaN,ILSVRC2012_val_00014046.JPEG
deit_insup,1,819,NaN,n01560419,n01560419,NaN,ILSVRC2012_val_00014678.JPEG
deit_insup,1,820,NaN,n01560419,n01560419,NaN,ILSVRC2012_val_00016840.JPEG
deit_insup,1,821,NaN,n01560419,n01560419,NaN,ILSVRC2012_val_00017310.JPEG
deit_insup,1,822,NaN,n01560419,n01560419,NaN,ILSVRC2012_val_00018145.JPEG
deit_insup,1,823,NaN,n01560419,n01560419,NaN,ILSVRC2012_val_00018672.JPEG
deit_insup,1,824,NaN,n01560419,n01560419,NaN,ILSVRC2012_val_00018680.JPEG
deit_insup,1,825,NaN,n01560419,n01560419,NaN,ILSVRC2012_val_00020788.JPEG
deit_insup,1,826,NaN,n01560419,n01560419,NaN,ILSVRC2012_val_00021085.JPEG
deit_insup,1,827,NaN,n01560419,n01560419,NaN,ILSVRC2012_val_00025526.JPEG
deit_insup,1,828,NaN,n01560419,n01560419,NaN,ILSVRC2012_val_00026010.JPEG
deit_insup,1,829,NaN,n01560419,n01560419,NaN,ILSVRC2012_val_00026362.JPEG
deit_insup,1,830,NaN,n01560419,n01560419,NaN,ILSVRC2012_val_00026541.JPEG
deit_insup,1,831,NaN,n01560419,n01560419,NaN,ILSVRC2012_val_00026929.JPEG
deit_insup,1,832,NaN,n01560419,n01560419,NaN,ILSVRC2012_val_00028230.JPEG
deit_insup,1,833,NaN,n01560419,n01560419,NaN,ILSVRC2012_val_00029835.JPEG
deit_insup,1,834,NaN,n01560419,n01560419,NaN,ILSVRC2012_val_00030283.JPEG
deit_insup,1,835,NaN,n01560419,n01560419,NaN,ILSVRC2012_val_00030966.JPEG
deit_insup,1,836,NaN,n01560419,n01560419,NaN,ILSVRC2012_val_00031649.JPEG
deit_insup,1,837,NaN,n01560419,n01560419,NaN,ILSVRC2012_val_00031772.JPEG
deit_insup,1,838,NaN,n01560419,n01560419,NaN,ILSVRC2012_val_00033691.JPEG
deit_insup,1,839,NaN,n01580077,n01560419,NaN,ILSVRC2012_val_00034720.JPEG
deit_insup,1,840,NaN,n01560419,n01560419,NaN,ILSVRC2012_val_00036999.JPEG
deit_insup,1,841,NaN,n01560419,n01560419,NaN,ILSVRC2012_val_00039759.JPEG
deit_insup,1,842,NaN,n01616318,n01560419,NaN,ILSVRC2012_val_00041990.JPEG
deit_insup,1,843,NaN,n01560419,n01560419,NaN,ILSVRC2012_val_00042048.JPEG
deit_insup,1,844,NaN,n01560419,n01560419,NaN,ILSVRC2012_val_00042600.JPEG
deit_insup,1,845,NaN,n01560419,n01560419,NaN,ILSVRC2012_val_00044009.JPEG
deit_insup,1,846,NaN,n01560419,n01560419,NaN,ILSVRC2012_val_00045785.JPEG
deit_insup,1,847,NaN,n01560419,n01560419,NaN,ILSVRC2012_val_00046173.JPEG
deit_insup,1,848,NaN,n01560419,n01560419,NaN,ILSVRC2012_val_00047474.JPEG
deit_insup,1,849,NaN,n01560419,n01560419,NaN,ILSVRC2012_val_00048178.JPEG
deit_insup,1,850,NaN,n01560419,n01560419,NaN,ILSVRC2012_val_00049803.JPEG
deit_insup,1,851,NaN,n01580077,n01580077,NaN,ILSVRC2012_val_00000880.JPEG
deit_insup,1,852,NaN,n01580077,n01580077,NaN,ILSVRC2012_val_00001084.JPEG
deit_insup,1,853,NaN,n01580077,n01580077,NaN,ILSVRC2012_val_00001508.JPEG
deit_insup,1,854,NaN,n01580077,n01580077,NaN,ILSVRC2012_val_00002655.JPEG
deit_insup,1,855,NaN,n01580077,n01580077,NaN,ILSVRC2012_val_00002929.JPEG
deit_insup,1,856,NaN,n01580077,n01580077,NaN,ILSVRC2012_val_00003386.JPEG
deit_insup,1,857,NaN,n01580077,n01580077,NaN,ILSVRC2012_val_00003861.JPEG
deit_insup,1,858,NaN,n01580077,n01580077,NaN,ILSVRC2012_val_00004316.JPEG
deit_insup,1,859,NaN,n02009229,n01580077,NaN,ILSVRC2012_val_00004317.JPEG
deit_insup,1,860,NaN,n01580077,n01580077,NaN,ILSVRC2012_val_00004344.JPEG
deit_insup,1,861,NaN,n01580077,n01580077,NaN,ILSVRC2012_val_00006267.JPEG
deit_insup,1,862,NaN,n01580077,n01580077,NaN,ILSVRC2012_val_00006463.JPEG
deit_insup,1,863,NaN,n01580077,n01580077,NaN,ILSVRC2012_val_00006851.JPEG
deit_insup,1,864,NaN,n01580077,n01580077,NaN,ILSVRC2012_val_00009535.JPEG
deit_insup,1,865,NaN,n01580077,n01580077,NaN,ILSVRC2012_val_00010240.JPEG
deit_insup,1,866,NaN,n01580077,n01580077,NaN,ILSVRC2012_val_00010272.JPEG
deit_insup,1,867,NaN,n01580077,n01580077,NaN,ILSVRC2012_val_00011446.JPEG
deit_insup,1,868,NaN,n01580077,n01580077,NaN,ILSVRC2012_val_00012132.JPEG
deit_insup,1,869,NaN,n01580077,n01580077,NaN,ILSVRC2012_val_00013753.JPEG
deit_insup,1,870,NaN,n01580077,n01580077,NaN,ILSVRC2012_val_00015195.JPEG
deit_insup,1,871,NaN,n01580077,n01580077,NaN,ILSVRC2012_val_00016831.JPEG
deit_insup,1,872,NaN,n01580077,n01580077,NaN,ILSVRC2012_val_00017024.JPEG
deit_insup,1,873,NaN,n01580077,n01580077,NaN,ILSVRC2012_val_00017975.JPEG
deit_insup,1,874,NaN,n01530575,n01580077,NaN,ILSVRC2012_val_00020905.JPEG
deit_insup,1,875,NaN,n01582220,n01580077,NaN,ILSVRC2012_val_00022106.JPEG
deit_insup,1,876,NaN,n01580077,n01580077,NaN,ILSVRC2012_val_00022505.JPEG
deit_insup,1,877,NaN,n01580077,n01580077,NaN,ILSVRC2012_val_00023945.JPEG
deit_insup,1,878,NaN,n01580077,n01580077,NaN,ILSVRC2012_val_00025361.JPEG
deit_insup,1,879,NaN,n01580077,n01580077,NaN,ILSVRC2012_val_00026136.JPEG
deit_insup,1,880,NaN,n01580077,n01580077,NaN,ILSVRC2012_val_00026465.JPEG
deit_insup,1,881,NaN,n01580077,n01580077,NaN,ILSVRC2012_val_00026656.JPEG
deit_insup,1,882,NaN,n01580077,n01580077,NaN,ILSVRC2012_val_00028440.JPEG
deit_insup,1,883,NaN,n01580077,n01580077,NaN,ILSVRC2012_val_00028524.JPEG
deit_insup,1,884,NaN,n01580077,n01580077,NaN,ILSVRC2012_val_00032586.JPEG
deit_insup,1,885,NaN,n01580077,n01580077,NaN,ILSVRC2012_val_00032702.JPEG
deit_insup,1,886,NaN,n01580077,n01580077,NaN,ILSVRC2012_val_00032831.JPEG
deit_insup,1,887,NaN,n01580077,n01580077,NaN,ILSVRC2012_val_00033307.JPEG
deit_insup,1,888,NaN,n01580077,n01580077,NaN,ILSVRC2012_val_00033515.JPEG
deit_insup,1,889,NaN,n01580077,n01580077,NaN,ILSVRC2012_val_00034144.JPEG
deit_insup,1,890,NaN,n01580077,n01580077,NaN,ILSVRC2012_val_00034333.JPEG
deit_insup,1,891,NaN,n01580077,n01580077,NaN,ILSVRC2012_val_00034552.JPEG
deit_insup,1,892,NaN,n01580077,n01580077,NaN,ILSVRC2012_val_00037939.JPEG
deit_insup,1,893,NaN,n01580077,n01580077,NaN,ILSVRC2012_val_00038405.JPEG
deit_insup,1,894,NaN,n01580077,n01580077,NaN,ILSVRC2012_val_00040412.JPEG
deit_insup,1,895,NaN,n01580077,n01580077,NaN,ILSVRC2012_val_00041308.JPEG
deit_insup,1,896,NaN,n01580077,n01580077,NaN,ILSVRC2012_val_00042248.JPEG
deit_insup,1,897,NaN,n01580077,n01580077,NaN,ILSVRC2012_val_00043995.JPEG
deit_insup,1,898,NaN,n01580077,n01580077,NaN,ILSVRC2012_val_00045062.JPEG
deit_insup,1,899,NaN,n01580077,n01580077,NaN,ILSVRC2012_val_00046280.JPEG
deit_insup,1,900,NaN,n01580077,n01580077,NaN,ILSVRC2012_val_00048360.JPEG
deit_insup,1,901,NaN,n01582220,n01582220,NaN,ILSVRC2012_val_00000476.JPEG
deit_insup,1,902,NaN,n01582220,n01582220,NaN,ILSVRC2012_val_00000963.JPEG
deit_insup,1,903,NaN,n01582220,n01582220,NaN,ILSVRC2012_val_00002536.JPEG
deit_insup,1,904,NaN,n01582220,n01582220,NaN,ILSVRC2012_val_00003092.JPEG
deit_insup,1,905,NaN,n01582220,n01582220,NaN,ILSVRC2012_val_00003665.JPEG
deit_insup,1,906,NaN,n01582220,n01582220,NaN,ILSVRC2012_val_00003762.JPEG
deit_insup,1,907,NaN,n01582220,n01582220,NaN,ILSVRC2012_val_00004518.JPEG
deit_insup,1,908,NaN,n01582220,n01582220,NaN,ILSVRC2012_val_00004559.JPEG
deit_insup,1,909,NaN,n01582220,n01582220,NaN,ILSVRC2012_val_00006171.JPEG
deit_insup,1,910,NaN,n01582220,n01582220,NaN,ILSVRC2012_val_00007231.JPEG
deit_insup,1,911,NaN,n01582220,n01582220,NaN,ILSVRC2012_val_00008347.JPEG
deit_insup,1,912,NaN,n01582220,n01582220,NaN,ILSVRC2012_val_00008512.JPEG
deit_insup,1,913,NaN,n01582220,n01582220,NaN,ILSVRC2012_val_00008786.JPEG
deit_insup,1,914,NaN,n01582220,n01582220,NaN,ILSVRC2012_val_00009981.JPEG
deit_insup,1,915,NaN,n01582220,n01582220,NaN,ILSVRC2012_val_00010501.JPEG
deit_insup,1,916,NaN,n01582220,n01582220,NaN,ILSVRC2012_val_00011501.JPEG
deit_insup,1,917,NaN,n01582220,n01582220,NaN,ILSVRC2012_val_00016794.JPEG
deit_insup,1,918,NaN,n01582220,n01582220,NaN,ILSVRC2012_val_00017648.JPEG
deit_insup,1,919,NaN,n01582220,n01582220,NaN,ILSVRC2012_val_00018183.JPEG
deit_insup,1,920,NaN,n01582220,n01582220,NaN,ILSVRC2012_val_00018250.JPEG
deit_insup,1,921,NaN,n01582220,n01582220,NaN,ILSVRC2012_val_00021956.JPEG
deit_insup,1,922,NaN,n01582220,n01582220,NaN,ILSVRC2012_val_00024025.JPEG
deit_insup,1,923,NaN,n01582220,n01582220,NaN,ILSVRC2012_val_00024044.JPEG
deit_insup,1,924,NaN,n01582220,n01582220,NaN,ILSVRC2012_val_00025806.JPEG
deit_insup,1,925,NaN,n01582220,n01582220,NaN,ILSVRC2012_val_00029695.JPEG
deit_insup,1,926,NaN,n01582220,n01582220,NaN,ILSVRC2012_val_00030017.JPEG
deit_insup,1,927,NaN,n01582220,n01582220,NaN,ILSVRC2012_val_00030073.JPEG
deit_insup,1,928,NaN,n01582220,n01582220,NaN,ILSVRC2012_val_00030845.JPEG
deit_insup,1,929,NaN,n01582220,n01582220,NaN,ILSVRC2012_val_00032667.JPEG
deit_insup,1,930,NaN,n01582220,n01582220,NaN,ILSVRC2012_val_00033150.JPEG
deit_insup,1,931,NaN,n01582220,n01582220,NaN,ILSVRC2012_val_00033483.JPEG
deit_insup,1,932,NaN,n01582220,n01582220,NaN,ILSVRC2012_val_00034437.JPEG
deit_insup,1,933,NaN,n01582220,n01582220,NaN,ILSVRC2012_val_00035348.JPEG
deit_insup,1,934,NaN,n01582220,n01582220,NaN,ILSVRC2012_val_00036015.JPEG
deit_insup,1,935,NaN,n01582220,n01582220,NaN,ILSVRC2012_val_00037436.JPEG
deit_insup,1,936,NaN,n01582220,n01582220,NaN,ILSVRC2012_val_00037806.JPEG
deit_insup,1,937,NaN,n01582220,n01582220,NaN,ILSVRC2012_val_00037824.JPEG
deit_insup,1,938,NaN,n01582220,n01582220,NaN,ILSVRC2012_val_00037920.JPEG
deit_insup,1,939,NaN,n01582220,n01582220,NaN,ILSVRC2012_val_00039004.JPEG
deit_insup,1,940,NaN,n01582220,n01582220,NaN,ILSVRC2012_val_00039219.JPEG
deit_insup,1,941,NaN,n01582220,n01582220,NaN,ILSVRC2012_val_00040439.JPEG
deit_insup,1,942,NaN,n01582220,n01582220,NaN,ILSVRC2012_val_00040938.JPEG
deit_insup,1,943,NaN,n01560419,n01582220,NaN,ILSVRC2012_val_00041051.JPEG
deit_insup,1,944,NaN,n02423022,n01582220,NaN,ILSVRC2012_val_00041135.JPEG
deit_insup,1,945,NaN,n01582220,n01582220,NaN,ILSVRC2012_val_00041206.JPEG
deit_insup,1,946,NaN,n01582220,n01582220,NaN,ILSVRC2012_val_00044192.JPEG
deit_insup,1,947,NaN,n01582220,n01582220,NaN,ILSVRC2012_val_00044507.JPEG
deit_insup,1,948,NaN,n01582220,n01582220,NaN,ILSVRC2012_val_00045948.JPEG
deit_insup,1,949,NaN,n01582220,n01582220,NaN,ILSVRC2012_val_00046917.JPEG
deit_insup,1,950,NaN,n01582220,n01582220,NaN,ILSVRC2012_val_00047827.JPEG
deit_insup,1,951,NaN,n01592084,n01592084,NaN,ILSVRC2012_val_00000837.JPEG
deit_insup,1,952,NaN,n01592084,n01592084,NaN,ILSVRC2012_val_00002681.JPEG
deit_insup,1,953,NaN,n01534433,n01592084,NaN,ILSVRC2012_val_00005224.JPEG
deit_insup,1,954,NaN,n01592084,n01592084,NaN,ILSVRC2012_val_00007912.JPEG
deit_insup,1,955,NaN,n01592084,n01592084,NaN,ILSVRC2012_val_00009374.JPEG
deit_insup,1,956,NaN,n01592084,n01592084,NaN,ILSVRC2012_val_00010128.JPEG
deit_insup,1,957,NaN,n01592084,n01592084,NaN,ILSVRC2012_val_00010861.JPEG
deit_insup,1,958,NaN,n01592084,n01592084,NaN,ILSVRC2012_val_00012836.JPEG
deit_insup,1,959,NaN,n01592084,n01592084,NaN,ILSVRC2012_val_00015269.JPEG
deit_insup,1,960,NaN,n01592084,n01592084,NaN,ILSVRC2012_val_00017017.JPEG
deit_insup,1,961,NaN,n01592084,n01592084,NaN,ILSVRC2012_val_00017756.JPEG
deit_insup,1,962,NaN,n01592084,n01592084,NaN,ILSVRC2012_val_00017916.JPEG
deit_insup,1,963,NaN,n01592084,n01592084,NaN,ILSVRC2012_val_00017976.JPEG
deit_insup,1,964,NaN,n01592084,n01592084,NaN,ILSVRC2012_val_00018167.JPEG
deit_insup,1,965,NaN,n01592084,n01592084,NaN,ILSVRC2012_val_00018280.JPEG
deit_insup,1,966,NaN,n01592084,n01592084,NaN,ILSVRC2012_val_00019788.JPEG
deit_insup,1,967,NaN,n01592084,n01592084,NaN,ILSVRC2012_val_00020469.JPEG
deit_insup,1,968,NaN,n01592084,n01592084,NaN,ILSVRC2012_val_00020660.JPEG
deit_insup,1,969,NaN,n01592084,n01592084,NaN,ILSVRC2012_val_00023907.JPEG
deit_insup,1,970,NaN,n01592084,n01592084,NaN,ILSVRC2012_val_00024012.JPEG
deit_insup,1,971,NaN,n01592084,n01592084,NaN,ILSVRC2012_val_00024353.JPEG
deit_insup,1,972,NaN,n01592084,n01592084,NaN,ILSVRC2012_val_00025476.JPEG
deit_insup,1,973,NaN,n01592084,n01592084,NaN,ILSVRC2012_val_00025577.JPEG
deit_insup,1,974,NaN,n01592084,n01592084,NaN,ILSVRC2012_val_00025692.JPEG
deit_insup,1,975,NaN,n01592084,n01592084,NaN,ILSVRC2012_val_00029441.JPEG
deit_insup,1,976,NaN,n01592084,n01592084,NaN,ILSVRC2012_val_00032102.JPEG
deit_insup,1,977,NaN,n01592084,n01592084,NaN,ILSVRC2012_val_00032788.JPEG
deit_insup,1,978,NaN,n01592084,n01592084,NaN,ILSVRC2012_val_00033372.JPEG
deit_insup,1,979,NaN,n01592084,n01592084,NaN,ILSVRC2012_val_00034095.JPEG
deit_insup,1,980,NaN,n01592084,n01592084,NaN,ILSVRC2012_val_00034242.JPEG
deit_insup,1,981,NaN,n01592084,n01592084,NaN,ILSVRC2012_val_00035303.JPEG
deit_insup,1,982,NaN,n01592084,n01592084,NaN,ILSVRC2012_val_00035947.JPEG
deit_insup,1,983,NaN,n01592084,n01592084,NaN,ILSVRC2012_val_00036534.JPEG
deit_insup,1,984,NaN,n01592084,n01592084,NaN,ILSVRC2012_val_00036812.JPEG
deit_insup,1,985,NaN,n01592084,n01592084,NaN,ILSVRC2012_val_00037328.JPEG
deit_insup,1,986,NaN,n01592084,n01592084,NaN,ILSVRC2012_val_00037420.JPEG
deit_insup,1,987,NaN,n01592084,n01592084,NaN,ILSVRC2012_val_00038192.JPEG
deit_insup,1,988,NaN,n01592084,n01592084,NaN,ILSVRC2012_val_00038557.JPEG
deit_insup,1,989,NaN,n01592084,n01592084,NaN,ILSVRC2012_val_00039466.JPEG
deit_insup,1,990,NaN,n01592084,n01592084,NaN,ILSVRC2012_val_00040783.JPEG
deit_insup,1,991,NaN,n01592084,n01592084,NaN,ILSVRC2012_val_00042246.JPEG
deit_insup,1,992,NaN,n01592084,n01592084,NaN,ILSVRC2012_val_00042506.JPEG
deit_insup,1,993,NaN,n01534433,n01592084,NaN,ILSVRC2012_val_00043585.JPEG
deit_insup,1,994,NaN,n01592084,n01592084,NaN,ILSVRC2012_val_00044038.JPEG
deit_insup,1,995,NaN,n01592084,n01592084,NaN,ILSVRC2012_val_00045198.JPEG
deit_insup,1,996,NaN,n01592084,n01592084,NaN,ILSVRC2012_val_00045568.JPEG
deit_insup,1,997,NaN,n01592084,n01592084,NaN,ILSVRC2012_val_00046415.JPEG
deit_insup,1,998,NaN,n01592084,n01592084,NaN,ILSVRC2012_val_00046422.JPEG
deit_insup,1,999,NaN,n01592084,n01592084,NaN,ILSVRC2012_val_00048107.JPEG
deit_insup,1,1000,NaN,n01592084,n01592084,NaN,ILSVRC2012_val_00049141.JPEG
deit_insup,1,1001,NaN,n01601694,n01601694,NaN,ILSVRC2012_val_00000962.JPEG
deit_insup,1,1002,NaN,n01601694,n01601694,NaN,ILSVRC2012_val_00002872.JPEG
deit_insup,1,1003,NaN,n01601694,n01601694,NaN,ILSVRC2012_val_00005576.JPEG
deit_insup,1,1004,NaN,n01601694,n01601694,NaN,ILSVRC2012_val_00006907.JPEG
deit_insup,1,1005,NaN,n01601694,n01601694,NaN,ILSVRC2012_val_00008495.JPEG
deit_insup,1,1006,NaN,n01601694,n01601694,NaN,ILSVRC2012_val_00008510.JPEG
deit_insup,1,1007,NaN,n01601694,n01601694,NaN,ILSVRC2012_val_00008816.JPEG
deit_insup,1,1008,NaN,n01601694,n01601694,NaN,ILSVRC2012_val_00009401.JPEG
deit_insup,1,1009,NaN,n01737021,n01601694,NaN,ILSVRC2012_val_00009597.JPEG
deit_insup,1,1010,NaN,n01601694,n01601694,NaN,ILSVRC2012_val_00010880.JPEG
deit_insup,1,1011,NaN,n01601694,n01601694,NaN,ILSVRC2012_val_00011519.JPEG
deit_insup,1,1012,NaN,n01582220,n01601694,NaN,ILSVRC2012_val_00012797.JPEG
deit_insup,1,1013,NaN,n01601694,n01601694,NaN,ILSVRC2012_val_00013223.JPEG
deit_insup,1,1014,NaN,n01601694,n01601694,NaN,ILSVRC2012_val_00013955.JPEG
deit_insup,1,1015,NaN,n01601694,n01601694,NaN,ILSVRC2012_val_00014673.JPEG
deit_insup,1,1016,NaN,n01601694,n01601694,NaN,ILSVRC2012_val_00015264.JPEG
deit_insup,1,1017,NaN,n01601694,n01601694,NaN,ILSVRC2012_val_00015922.JPEG
deit_insup,1,1018,NaN,n01601694,n01601694,NaN,ILSVRC2012_val_00016909.JPEG
deit_insup,1,1019,NaN,n01601694,n01601694,NaN,ILSVRC2012_val_00017028.JPEG
deit_insup,1,1020,NaN,n01601694,n01601694,NaN,ILSVRC2012_val_00019034.JPEG
deit_insup,1,1021,NaN,n01601694,n01601694,NaN,ILSVRC2012_val_00020349.JPEG
deit_insup,1,1022,NaN,n01601694,n01601694,NaN,ILSVRC2012_val_00020730.JPEG
deit_insup,1,1023,NaN,n02037110,n01601694,NaN,ILSVRC2012_val_00021656.JPEG
deit_insup,1,1024,NaN,n01601694,n01601694,NaN,ILSVRC2012_val_00022972.JPEG
deit_insup,1,1025,NaN,n01601694,n01601694,NaN,ILSVRC2012_val_00023895.JPEG
deit_insup,1,1026,NaN,n01601694,n01601694,NaN,ILSVRC2012_val_00024059.JPEG
deit_insup,1,1027,NaN,n01601694,n01601694,NaN,ILSVRC2012_val_00024643.JPEG
deit_insup,1,1028,NaN,n01601694,n01601694,NaN,ILSVRC2012_val_00025214.JPEG
deit_insup,1,1029,NaN,n01601694,n01601694,NaN,ILSVRC2012_val_00025524.JPEG
deit_insup,1,1030,NaN,n01843065,n01601694,NaN,ILSVRC2012_val_00026023.JPEG
deit_insup,1,1031,NaN,n01601694,n01601694,NaN,ILSVRC2012_val_00028099.JPEG
deit_insup,1,1032,NaN,n01601694,n01601694,NaN,ILSVRC2012_val_00028181.JPEG
deit_insup,1,1033,NaN,n01601694,n01601694,NaN,ILSVRC2012_val_00029430.JPEG
deit_insup,1,1034,NaN,n02444819,n01601694,NaN,ILSVRC2012_val_00030011.JPEG
deit_insup,1,1035,NaN,n01601694,n01601694,NaN,ILSVRC2012_val_00031973.JPEG
deit_insup,1,1036,NaN,n01601694,n01601694,NaN,ILSVRC2012_val_00033770.JPEG
deit_insup,1,1037,NaN,n01601694,n01601694,NaN,ILSVRC2012_val_00034929.JPEG
deit_insup,1,1038,NaN,n01601694,n01601694,NaN,ILSVRC2012_val_00036819.JPEG
deit_insup,1,1039,NaN,n01530575,n01601694,NaN,ILSVRC2012_val_00038159.JPEG
deit_insup,1,1040,NaN,n01601694,n01601694,NaN,ILSVRC2012_val_00039648.JPEG
deit_insup,1,1041,NaN,n01601694,n01601694,NaN,ILSVRC2012_val_00040903.JPEG
deit_insup,1,1042,NaN,n01601694,n01601694,NaN,ILSVRC2012_val_00043566.JPEG
deit_insup,1,1043,NaN,n01601694,n01601694,NaN,ILSVRC2012_val_00045581.JPEG
deit_insup,1,1044,NaN,n01601694,n01601694,NaN,ILSVRC2012_val_00045873.JPEG
deit_insup,1,1045,NaN,n01601694,n01601694,NaN,ILSVRC2012_val_00047121.JPEG
deit_insup,1,1046,NaN,n01601694,n01601694,NaN,ILSVRC2012_val_00047626.JPEG
deit_insup,1,1047,NaN,n01601694,n01601694,NaN,ILSVRC2012_val_00047732.JPEG
deit_insup,1,1048,NaN,n01601694,n01601694,NaN,ILSVRC2012_val_00048552.JPEG
deit_insup,1,1049,NaN,n01601694,n01601694,NaN,ILSVRC2012_val_00049669.JPEG
deit_insup,1,1050,NaN,n01945685,n01601694,NaN,ILSVRC2012_val_00049775.JPEG
deit_insup,1,1051,NaN,n01608432,n01608432,NaN,ILSVRC2012_val_00000073.JPEG
deit_insup,1,1052,NaN,n01608432,n01608432,NaN,ILSVRC2012_val_00000328.JPEG
deit_insup,1,1053,NaN,n01608432,n01608432,NaN,ILSVRC2012_val_00000739.JPEG
deit_insup,1,1054,NaN,n01608432,n01608432,NaN,ILSVRC2012_val_00000888.JPEG
deit_insup,1,1055,NaN,n01608432,n01608432,NaN,ILSVRC2012_val_00001218.JPEG
deit_insup,1,1056,NaN,n01608432,n01608432,NaN,ILSVRC2012_val_00001488.JPEG
deit_insup,1,1057,NaN,n01608432,n01608432,NaN,ILSVRC2012_val_00001813.JPEG
deit_insup,1,1058,NaN,n01614925,n01608432,NaN,ILSVRC2012_val_00002444.JPEG
deit_insup,1,1059,NaN,n01608432,n01608432,NaN,ILSVRC2012_val_00004381.JPEG
deit_insup,1,1060,NaN,n01608432,n01608432,NaN,ILSVRC2012_val_00006203.JPEG
deit_insup,1,1061,NaN,n01614925,n01608432,NaN,ILSVRC2012_val_00013095.JPEG
deit_insup,1,1062,NaN,n01608432,n01608432,NaN,ILSVRC2012_val_00013166.JPEG
deit_insup,1,1063,NaN,n01608432,n01608432,NaN,ILSVRC2012_val_00013393.JPEG
deit_insup,1,1064,NaN,n01608432,n01608432,NaN,ILSVRC2012_val_00013432.JPEG
deit_insup,1,1065,NaN,n01582220,n01608432,NaN,ILSVRC2012_val_00014196.JPEG
deit_insup,1,1066,NaN,n01608432,n01608432,NaN,ILSVRC2012_val_00015040.JPEG
deit_insup,1,1067,NaN,n01608432,n01608432,NaN,ILSVRC2012_val_00015107.JPEG
deit_insup,1,1068,NaN,n01614925,n01608432,NaN,ILSVRC2012_val_00015746.JPEG
deit_insup,1,1069,NaN,n01608432,n01608432,NaN,ILSVRC2012_val_00018796.JPEG
deit_insup,1,1070,NaN,n01608432,n01608432,NaN,ILSVRC2012_val_00020694.JPEG
deit_insup,1,1071,NaN,n01608432,n01608432,NaN,ILSVRC2012_val_00020710.JPEG
deit_insup,1,1072,NaN,n01608432,n01608432,NaN,ILSVRC2012_val_00021056.JPEG
deit_insup,1,1073,NaN,n01616318,n01608432,NaN,ILSVRC2012_val_00023128.JPEG
deit_insup,1,1074,NaN,n01608432,n01608432,NaN,ILSVRC2012_val_00025047.JPEG
deit_insup,1,1075,NaN,n01608432,n01608432,NaN,ILSVRC2012_val_00025636.JPEG
deit_insup,1,1076,NaN,n01608432,n01608432,NaN,ILSVRC2012_val_00026444.JPEG
deit_insup,1,1077,NaN,n01855672,n01608432,NaN,ILSVRC2012_val_00027693.JPEG
deit_insup,1,1078,NaN,n01608432,n01608432,NaN,ILSVRC2012_val_00028139.JPEG
deit_insup,1,1079,NaN,n01608432,n01608432,NaN,ILSVRC2012_val_00028521.JPEG
deit_insup,1,1080,NaN,n01608432,n01608432,NaN,ILSVRC2012_val_00030094.JPEG
deit_insup,1,1081,NaN,n01829413,n01608432,NaN,ILSVRC2012_val_00030292.JPEG
deit_insup,1,1082,NaN,n01608432,n01608432,NaN,ILSVRC2012_val_00030483.JPEG
deit_insup,1,1083,NaN,n01608432,n01608432,NaN,ILSVRC2012_val_00031676.JPEG
deit_insup,1,1084,NaN,n01608432,n01608432,NaN,ILSVRC2012_val_00033214.JPEG
deit_insup,1,1085,NaN,n01608432,n01608432,NaN,ILSVRC2012_val_00033433.JPEG
deit_insup,1,1086,NaN,n01608432,n01608432,NaN,ILSVRC2012_val_00033771.JPEG
deit_insup,1,1087,NaN,n01608432,n01608432,NaN,ILSVRC2012_val_00036125.JPEG
deit_insup,1,1088,NaN,n01608432,n01608432,NaN,ILSVRC2012_val_00036356.JPEG
deit_insup,1,1089,NaN,n01608432,n01608432,NaN,ILSVRC2012_val_00037878.JPEG
deit_insup,1,1090,NaN,n01608432,n01608432,NaN,ILSVRC2012_val_00038111.JPEG
deit_insup,1,1091,NaN,n01608432,n01608432,NaN,ILSVRC2012_val_00038250.JPEG
deit_insup,1,1092,NaN,n01608432,n01608432,NaN,ILSVRC2012_val_00043085.JPEG
deit_insup,1,1093,NaN,n02018795,n01608432,NaN,ILSVRC2012_val_00045690.JPEG
deit_insup,1,1094,NaN,n01608432,n01608432,NaN,ILSVRC2012_val_00045746.JPEG
deit_insup,1,1095,NaN,n01608432,n01608432,NaN,ILSVRC2012_val_00046092.JPEG
deit_insup,1,1096,NaN,n01608432,n01608432,NaN,ILSVRC2012_val_00046308.JPEG
deit_insup,1,1097,NaN,n01608432,n01608432,NaN,ILSVRC2012_val_00046733.JPEG
deit_insup,1,1098,NaN,n01608432,n01608432,NaN,ILSVRC2012_val_00046948.JPEG
deit_insup,1,1099,NaN,n01608432,n01608432,NaN,ILSVRC2012_val_00047191.JPEG
deit_insup,1,1100,NaN,n01608432,n01608432,NaN,ILSVRC2012_val_00047637.JPEG
deit_insup,1,1101,NaN,n01608432,n01614925,NaN,ILSVRC2012_val_00000128.JPEG
deit_insup,1,1102,NaN,n01614925,n01614925,NaN,ILSVRC2012_val_00002031.JPEG
deit_insup,1,1103,NaN,n01614925,n01614925,NaN,ILSVRC2012_val_00003330.JPEG
deit_insup,1,1104,NaN,n01614925,n01614925,NaN,ILSVRC2012_val_00006334.JPEG
deit_insup,1,1105,NaN,n01614925,n01614925,NaN,ILSVRC2012_val_00006571.JPEG
deit_insup,1,1106,NaN,n01614925,n01614925,NaN,ILSVRC2012_val_00007712.JPEG
deit_insup,1,1107,NaN,n01614925,n01614925,NaN,ILSVRC2012_val_00008151.JPEG
deit_insup,1,1108,NaN,n01614925,n01614925,NaN,ILSVRC2012_val_00008481.JPEG
deit_insup,1,1109,NaN,n01614925,n01614925,NaN,ILSVRC2012_val_00010889.JPEG
deit_insup,1,1110,NaN,n01614925,n01614925,NaN,ILSVRC2012_val_00013265.JPEG
deit_insup,1,1111,NaN,n01614925,n01614925,NaN,ILSVRC2012_val_00013702.JPEG
deit_insup,1,1112,NaN,n01614925,n01614925,NaN,ILSVRC2012_val_00014007.JPEG
deit_insup,1,1113,NaN,n01614925,n01614925,NaN,ILSVRC2012_val_00014082.JPEG
deit_insup,1,1114,NaN,n01614925,n01614925,NaN,ILSVRC2012_val_00014192.JPEG
deit_insup,1,1115,NaN,n01614925,n01614925,NaN,ILSVRC2012_val_00015516.JPEG
deit_insup,1,1116,NaN,n01614925,n01614925,NaN,ILSVRC2012_val_00017994.JPEG
deit_insup,1,1117,NaN,n01614925,n01614925,NaN,ILSVRC2012_val_00020052.JPEG
deit_insup,1,1118,NaN,n01614925,n01614925,NaN,ILSVRC2012_val_00021015.JPEG
deit_insup,1,1119,NaN,n01614925,n01614925,NaN,ILSVRC2012_val_00021104.JPEG
deit_insup,1,1120,NaN,n01614925,n01614925,NaN,ILSVRC2012_val_00022597.JPEG
deit_insup,1,1121,NaN,n01614925,n01614925,NaN,ILSVRC2012_val_00026050.JPEG
deit_insup,1,1122,NaN,n01614925,n01614925,NaN,ILSVRC2012_val_00026614.JPEG
deit_insup,1,1123,NaN,n01614925,n01614925,NaN,ILSVRC2012_val_00026707.JPEG
deit_insup,1,1124,NaN,n01614925,n01614925,NaN,ILSVRC2012_val_00027079.JPEG
deit_insup,1,1125,NaN,n01614925,n01614925,NaN,ILSVRC2012_val_00027196.JPEG
deit_insup,1,1126,NaN,n01614925,n01614925,NaN,ILSVRC2012_val_00027570.JPEG
deit_insup,1,1127,NaN,n01614925,n01614925,NaN,ILSVRC2012_val_00031465.JPEG
deit_insup,1,1128,NaN,n01614925,n01614925,NaN,ILSVRC2012_val_00032320.JPEG
deit_insup,1,1129,NaN,n01614925,n01614925,NaN,ILSVRC2012_val_00033435.JPEG
deit_insup,1,1130,NaN,n01614925,n01614925,NaN,ILSVRC2012_val_00034168.JPEG
deit_insup,1,1131,NaN,n01614925,n01614925,NaN,ILSVRC2012_val_00037795.JPEG
deit_insup,1,1132,NaN,n01614925,n01614925,NaN,ILSVRC2012_val_00038636.JPEG
deit_insup,1,1133,NaN,n01614925,n01614925,NaN,ILSVRC2012_val_00038804.JPEG
deit_insup,1,1134,NaN,n01614925,n01614925,NaN,ILSVRC2012_val_00039605.JPEG
deit_insup,1,1135,NaN,n01614925,n01614925,NaN,ILSVRC2012_val_00039859.JPEG
deit_insup,1,1136,NaN,n01614925,n01614925,NaN,ILSVRC2012_val_00040158.JPEG
deit_insup,1,1137,NaN,n01614925,n01614925,NaN,ILSVRC2012_val_00040242.JPEG
deit_insup,1,1138,NaN,n01614925,n01614925,NaN,ILSVRC2012_val_00040404.JPEG
deit_insup,1,1139,NaN,n01614925,n01614925,NaN,ILSVRC2012_val_00040474.JPEG
deit_insup,1,1140,NaN,n01614925,n01614925,NaN,ILSVRC2012_val_00040608.JPEG
deit_insup,1,1141,NaN,n01614925,n01614925,NaN,ILSVRC2012_val_00040970.JPEG
deit_insup,1,1142,NaN,n01614925,n01614925,NaN,ILSVRC2012_val_00042380.JPEG
deit_insup,1,1143,NaN,n01614925,n01614925,NaN,ILSVRC2012_val_00043779.JPEG
deit_insup,1,1144,NaN,n01614925,n01614925,NaN,ILSVRC2012_val_00044921.JPEG
deit_insup,1,1145,NaN,n01614925,n01614925,NaN,ILSVRC2012_val_00045612.JPEG
deit_insup,1,1146,NaN,n01614925,n01614925,NaN,ILSVRC2012_val_00046564.JPEG
deit_insup,1,1147,NaN,n01614925,n01614925,NaN,ILSVRC2012_val_00046632.JPEG
deit_insup,1,1148,NaN,n01614925,n01614925,NaN,ILSVRC2012_val_00048960.JPEG
deit_insup,1,1149,NaN,n01614925,n01614925,NaN,ILSVRC2012_val_00049531.JPEG
deit_insup,1,1150,NaN,n01614925,n01614925,NaN,ILSVRC2012_val_00049899.JPEG
deit_insup,1,1151,NaN,n01616318,n01616318,NaN,ILSVRC2012_val_00000018.JPEG
deit_insup,1,1152,NaN,n01616318,n01616318,NaN,ILSVRC2012_val_00000025.JPEG
deit_insup,1,1153,NaN,n01616318,n01616318,NaN,ILSVRC2012_val_00000916.JPEG
deit_insup,1,1154,NaN,n01616318,n01616318,NaN,ILSVRC2012_val_00001391.JPEG
deit_insup,1,1155,NaN,n01616318,n01616318,NaN,ILSVRC2012_val_00002168.JPEG
deit_insup,1,1156,NaN,n01616318,n01616318,NaN,ILSVRC2012_val_00002387.JPEG
deit_insup,1,1157,NaN,n01616318,n01616318,NaN,ILSVRC2012_val_00004554.JPEG
deit_insup,1,1158,NaN,n01616318,n01616318,NaN,ILSVRC2012_val_00006213.JPEG
deit_insup,1,1159,NaN,n01616318,n01616318,NaN,ILSVRC2012_val_00006250.JPEG
deit_insup,1,1160,NaN,n01616318,n01616318,NaN,ILSVRC2012_val_00008819.JPEG
deit_insup,1,1161,NaN,n01616318,n01616318,NaN,ILSVRC2012_val_00009100.JPEG
deit_insup,1,1162,NaN,n01616318,n01616318,NaN,ILSVRC2012_val_00009119.JPEG
deit_insup,1,1163,NaN,n01616318,n01616318,NaN,ILSVRC2012_val_00011317.JPEG
deit_insup,1,1164,NaN,n01616318,n01616318,NaN,ILSVRC2012_val_00012178.JPEG
deit_insup,1,1165,NaN,n01616318,n01616318,NaN,ILSVRC2012_val_00012615.JPEG
deit_insup,1,1166,NaN,n01616318,n01616318,NaN,ILSVRC2012_val_00014220.JPEG
deit_insup,1,1167,NaN,n01616318,n01616318,NaN,ILSVRC2012_val_00015769.JPEG
deit_insup,1,1168,NaN,n01616318,n01616318,NaN,ILSVRC2012_val_00018092.JPEG
deit_insup,1,1169,NaN,n01616318,n01616318,NaN,ILSVRC2012_val_00019868.JPEG
deit_insup,1,1170,NaN,n01616318,n01616318,NaN,ILSVRC2012_val_00020743.JPEG
deit_insup,1,1171,NaN,n01806143,n01616318,NaN,ILSVRC2012_val_00022088.JPEG
deit_insup,1,1172,NaN,n01616318,n01616318,NaN,ILSVRC2012_val_00022165.JPEG
deit_insup,1,1173,NaN,n01616318,n01616318,NaN,ILSVRC2012_val_00023247.JPEG
deit_insup,1,1174,NaN,n01616318,n01616318,NaN,ILSVRC2012_val_00024514.JPEG
deit_insup,1,1175,NaN,n01616318,n01616318,NaN,ILSVRC2012_val_00026604.JPEG
deit_insup,1,1176,NaN,n01616318,n01616318,NaN,ILSVRC2012_val_00027588.JPEG
deit_insup,1,1177,NaN,n01616318,n01616318,NaN,ILSVRC2012_val_00027870.JPEG
deit_insup,1,1178,NaN,n01616318,n01616318,NaN,ILSVRC2012_val_00030090.JPEG
deit_insup,1,1179,NaN,n01616318,n01616318,NaN,ILSVRC2012_val_00030515.JPEG
deit_insup,1,1180,NaN,n01616318,n01616318,NaN,ILSVRC2012_val_00030618.JPEG
deit_insup,1,1181,NaN,n01616318,n01616318,NaN,ILSVRC2012_val_00031653.JPEG
deit_insup,1,1182,NaN,n01616318,n01616318,NaN,ILSVRC2012_val_00032389.JPEG
deit_insup,1,1183,NaN,n01616318,n01616318,NaN,ILSVRC2012_val_00032832.JPEG
deit_insup,1,1184,NaN,n01616318,n01616318,NaN,ILSVRC2012_val_00032889.JPEG
deit_insup,1,1185,NaN,n01616318,n01616318,NaN,ILSVRC2012_val_00035953.JPEG
deit_insup,1,1186,NaN,n01616318,n01616318,NaN,ILSVRC2012_val_00036388.JPEG
deit_insup,1,1187,NaN,n01616318,n01616318,NaN,ILSVRC2012_val_00036620.JPEG
deit_insup,1,1188,NaN,n01616318,n01616318,NaN,ILSVRC2012_val_00037071.JPEG
deit_insup,1,1189,NaN,n01616318,n01616318,NaN,ILSVRC2012_val_00037127.JPEG
deit_insup,1,1190,NaN,n01616318,n01616318,NaN,ILSVRC2012_val_00037259.JPEG
deit_insup,1,1191,NaN,n01616318,n01616318,NaN,ILSVRC2012_val_00040117.JPEG
deit_insup,1,1192,NaN,n01616318,n01616318,NaN,ILSVRC2012_val_00040205.JPEG
deit_insup,1,1193,NaN,n01616318,n01616318,NaN,ILSVRC2012_val_00040425.JPEG
deit_insup,1,1194,NaN,n01616318,n01616318,NaN,ILSVRC2012_val_00040614.JPEG
deit_insup,1,1195,NaN,n01616318,n01616318,NaN,ILSVRC2012_val_00042410.JPEG
deit_insup,1,1196,NaN,n01616318,n01616318,NaN,ILSVRC2012_val_00042788.JPEG
deit_insup,1,1197,NaN,n01616318,n01616318,NaN,ILSVRC2012_val_00043801.JPEG
deit_insup,1,1198,NaN,n01616318,n01616318,NaN,ILSVRC2012_val_00044797.JPEG
deit_insup,1,1199,NaN,n01616318,n01616318,NaN,ILSVRC2012_val_00045589.JPEG
deit_insup,1,1200,NaN,n01608432,n01616318,NaN,ILSVRC2012_val_00047350.JPEG
deit_insup,1,1201,NaN,n01622779,n01622779,NaN,ILSVRC2012_val_00000318.JPEG
deit_insup,1,1202,NaN,n01622779,n01622779,NaN,ILSVRC2012_val_00001213.JPEG
deit_insup,1,1203,NaN,n01622779,n01622779,NaN,ILSVRC2012_val_00002228.JPEG
deit_insup,1,1204,NaN,n01622779,n01622779,NaN,ILSVRC2012_val_00002511.JPEG
deit_insup,1,1205,NaN,n01622779,n01622779,NaN,ILSVRC2012_val_00003169.JPEG
deit_insup,1,1206,NaN,n01616318,n01622779,NaN,ILSVRC2012_val_00003892.JPEG
deit_insup,1,1207,NaN,n04252077,n01622779,NaN,ILSVRC2012_val_00004345.JPEG
deit_insup,1,1208,NaN,n01622779,n01622779,NaN,ILSVRC2012_val_00004859.JPEG
deit_insup,1,1209,NaN,n01622779,n01622779,NaN,ILSVRC2012_val_00005770.JPEG
deit_insup,1,1210,NaN,n01622779,n01622779,NaN,ILSVRC2012_val_00006472.JPEG
deit_insup,1,1211,NaN,n01622779,n01622779,NaN,ILSVRC2012_val_00006916.JPEG
deit_insup,1,1212,NaN,n01622779,n01622779,NaN,ILSVRC2012_val_00008049.JPEG
deit_insup,1,1213,NaN,n01622779,n01622779,NaN,ILSVRC2012_val_00008178.JPEG
deit_insup,1,1214,NaN,n01622779,n01622779,NaN,ILSVRC2012_val_00008209.JPEG
deit_insup,1,1215,NaN,n01622779,n01622779,NaN,ILSVRC2012_val_00009415.JPEG
deit_insup,1,1216,NaN,n01622779,n01622779,NaN,ILSVRC2012_val_00009842.JPEG
deit_insup,1,1217,NaN,n01622779,n01622779,NaN,ILSVRC2012_val_00010022.JPEG
deit_insup,1,1218,NaN,n01622779,n01622779,NaN,ILSVRC2012_val_00010457.JPEG
deit_insup,1,1219,NaN,n01622779,n01622779,NaN,ILSVRC2012_val_00011414.JPEG
deit_insup,1,1220,NaN,n01622779,n01622779,NaN,ILSVRC2012_val_00014982.JPEG
deit_insup,1,1221,NaN,n01622779,n01622779,NaN,ILSVRC2012_val_00015913.JPEG
deit_insup,1,1222,NaN,n01622779,n01622779,NaN,ILSVRC2012_val_00016292.JPEG
deit_insup,1,1223,NaN,n01622779,n01622779,NaN,ILSVRC2012_val_00018062.JPEG
deit_insup,1,1224,NaN,n01622779,n01622779,NaN,ILSVRC2012_val_00018660.JPEG
deit_insup,1,1225,NaN,n01622779,n01622779,NaN,ILSVRC2012_val_00021133.JPEG
deit_insup,1,1226,NaN,n01622779,n01622779,NaN,ILSVRC2012_val_00021335.JPEG
deit_insup,1,1227,NaN,n01622779,n01622779,NaN,ILSVRC2012_val_00022709.JPEG
deit_insup,1,1228,NaN,n01622779,n01622779,NaN,ILSVRC2012_val_00023030.JPEG
deit_insup,1,1229,NaN,n01622779,n01622779,NaN,ILSVRC2012_val_00024052.JPEG
deit_insup,1,1230,NaN,n01622779,n01622779,NaN,ILSVRC2012_val_00025523.JPEG
deit_insup,1,1231,NaN,n01622779,n01622779,NaN,ILSVRC2012_val_00025913.JPEG
deit_insup,1,1232,NaN,n01622779,n01622779,NaN,ILSVRC2012_val_00026579.JPEG
deit_insup,1,1233,NaN,n01622779,n01622779,NaN,ILSVRC2012_val_00027519.JPEG
deit_insup,1,1234,NaN,n01622779,n01622779,NaN,ILSVRC2012_val_00027627.JPEG
deit_insup,1,1235,NaN,n01622779,n01622779,NaN,ILSVRC2012_val_00029497.JPEG
deit_insup,1,1236,NaN,n01622779,n01622779,NaN,ILSVRC2012_val_00031144.JPEG
deit_insup,1,1237,NaN,n01622779,n01622779,NaN,ILSVRC2012_val_00031890.JPEG
deit_insup,1,1238,NaN,n01622779,n01622779,NaN,ILSVRC2012_val_00032875.JPEG
deit_insup,1,1239,NaN,n01622779,n01622779,NaN,ILSVRC2012_val_00033063.JPEG
deit_insup,1,1240,NaN,n01622779,n01622779,NaN,ILSVRC2012_val_00034405.JPEG
deit_insup,1,1241,NaN,n01622779,n01622779,NaN,ILSVRC2012_val_00034593.JPEG
deit_insup,1,1242,NaN,n01622779,n01622779,NaN,ILSVRC2012_val_00035098.JPEG
deit_insup,1,1243,NaN,n01622779,n01622779,NaN,ILSVRC2012_val_00035608.JPEG
deit_insup,1,1244,NaN,n01622779,n01622779,NaN,ILSVRC2012_val_00037606.JPEG
deit_insup,1,1245,NaN,n01622779,n01622779,NaN,ILSVRC2012_val_00040434.JPEG
deit_insup,1,1246,NaN,n01622779,n01622779,NaN,ILSVRC2012_val_00043466.JPEG
deit_insup,1,1247,NaN,n01622779,n01622779,NaN,ILSVRC2012_val_00047963.JPEG
deit_insup,1,1248,NaN,n01622779,n01622779,NaN,ILSVRC2012_val_00048175.JPEG
deit_insup,1,1249,NaN,n01622779,n01622779,NaN,ILSVRC2012_val_00049639.JPEG
deit_insup,1,1250,NaN,n01622779,n01622779,NaN,ILSVRC2012_val_00049990.JPEG
deit_insup,1,1251,NaN,n01629819,n01629819,NaN,ILSVRC2012_val_00000225.JPEG
deit_insup,1,1252,NaN,n01629819,n01629819,NaN,ILSVRC2012_val_00000890.JPEG
deit_insup,1,1253,NaN,n01629819,n01629819,NaN,ILSVRC2012_val_00001033.JPEG
deit_insup,1,1254,NaN,n01630670,n01629819,NaN,ILSVRC2012_val_00001667.JPEG
deit_insup,1,1255,NaN,n01629819,n01629819,NaN,ILSVRC2012_val_00001816.JPEG
deit_insup,1,1256,NaN,n01629819,n01629819,NaN,ILSVRC2012_val_00002883.JPEG
deit_insup,1,1257,NaN,n01629819,n01629819,NaN,ILSVRC2012_val_00006679.JPEG
deit_insup,1,1258,NaN,n01629819,n01629819,NaN,ILSVRC2012_val_00008542.JPEG
deit_insup,1,1259,NaN,n01629819,n01629819,NaN,ILSVRC2012_val_00009616.JPEG
deit_insup,1,1260,NaN,n01629819,n01629819,NaN,ILSVRC2012_val_00009674.JPEG
deit_insup,1,1261,NaN,n01629819,n01629819,NaN,ILSVRC2012_val_00009938.JPEG
deit_insup,1,1262,NaN,n01629819,n01629819,NaN,ILSVRC2012_val_00010116.JPEG
deit_insup,1,1263,NaN,n01629819,n01629819,NaN,ILSVRC2012_val_00010817.JPEG
deit_insup,1,1264,NaN,n01629819,n01629819,NaN,ILSVRC2012_val_00011278.JPEG
deit_insup,1,1265,NaN,n01629819,n01629819,NaN,ILSVRC2012_val_00011661.JPEG
deit_insup,1,1266,NaN,n01629819,n01629819,NaN,ILSVRC2012_val_00012588.JPEG
deit_insup,1,1267,NaN,n01629819,n01629819,NaN,ILSVRC2012_val_00013899.JPEG
deit_insup,1,1268,NaN,n01629819,n01629819,NaN,ILSVRC2012_val_00014076.JPEG
deit_insup,1,1269,NaN,n01629819,n01629819,NaN,ILSVRC2012_val_00014232.JPEG
deit_insup,1,1270,NaN,n01629819,n01629819,NaN,ILSVRC2012_val_00016747.JPEG
deit_insup,1,1271,NaN,n01629819,n01629819,NaN,ILSVRC2012_val_00017623.JPEG
deit_insup,1,1272,NaN,n01629819,n01629819,NaN,ILSVRC2012_val_00018645.JPEG
deit_insup,1,1273,NaN,n01629819,n01629819,NaN,ILSVRC2012_val_00019308.JPEG
deit_insup,1,1274,NaN,n01629819,n01629819,NaN,ILSVRC2012_val_00019630.JPEG
deit_insup,1,1275,NaN,n01629819,n01629819,NaN,ILSVRC2012_val_00022935.JPEG
deit_insup,1,1276,NaN,n01629819,n01629819,NaN,ILSVRC2012_val_00023201.JPEG
deit_insup,1,1277,NaN,n01629819,n01629819,NaN,ILSVRC2012_val_00028323.JPEG
deit_insup,1,1278,NaN,n01629819,n01629819,NaN,ILSVRC2012_val_00028489.JPEG
deit_insup,1,1279,NaN,n01629819,n01629819,NaN,ILSVRC2012_val_00028565.JPEG
deit_insup,1,1280,NaN,n01629819,n01629819,NaN,ILSVRC2012_val_00029460.JPEG
deit_insup,1,1281,NaN,n01629819,n01629819,NaN,ILSVRC2012_val_00029763.JPEG
deit_insup,1,1282,NaN,n01629819,n01629819,NaN,ILSVRC2012_val_00030300.JPEG
deit_insup,1,1283,NaN,n01629819,n01629819,NaN,ILSVRC2012_val_00033081.JPEG
deit_insup,1,1284,NaN,n01629819,n01629819,NaN,ILSVRC2012_val_00033575.JPEG
deit_insup,1,1285,NaN,n01629819,n01629819,NaN,ILSVRC2012_val_00034499.JPEG
deit_insup,1,1286,NaN,n01629819,n01629819,NaN,ILSVRC2012_val_00039753.JPEG
deit_insup,1,1287,NaN,n01629819,n01629819,NaN,ILSVRC2012_val_00040470.JPEG
deit_insup,1,1288,NaN,n01629819,n01629819,NaN,ILSVRC2012_val_00040820.JPEG
deit_insup,1,1289,NaN,n01629819,n01629819,NaN,ILSVRC2012_val_00045120.JPEG
deit_insup,1,1290,NaN,n01629819,n01629819,NaN,ILSVRC2012_val_00046119.JPEG
deit_insup,1,1291,NaN,n01629819,n01629819,NaN,ILSVRC2012_val_00046162.JPEG
deit_insup,1,1292,NaN,n01629819,n01629819,NaN,ILSVRC2012_val_00046243.JPEG
deit_insup,1,1293,NaN,n01629819,n01629819,NaN,ILSVRC2012_val_00046756.JPEG
deit_insup,1,1294,NaN,n01629819,n01629819,NaN,ILSVRC2012_val_00046941.JPEG
deit_insup,1,1295,NaN,n01629819,n01629819,NaN,ILSVRC2012_val_00046985.JPEG
deit_insup,1,1296,NaN,n01629819,n01629819,NaN,ILSVRC2012_val_00048445.JPEG
deit_insup,1,1297,NaN,n01629819,n01629819,NaN,ILSVRC2012_val_00048463.JPEG
deit_insup,1,1298,NaN,n01629819,n01629819,NaN,ILSVRC2012_val_00049065.JPEG
deit_insup,1,1299,NaN,n01629819,n01629819,NaN,ILSVRC2012_val_00049244.JPEG
deit_insup,1,1300,NaN,n01629819,n01629819,NaN,ILSVRC2012_val_00049898.JPEG
deit_insup,1,1301,NaN,n01630670,n01630670,NaN,ILSVRC2012_val_00000498.JPEG
deit_insup,1,1302,NaN,n01632458,n01630670,NaN,ILSVRC2012_val_00002774.JPEG
deit_insup,1,1303,NaN,n01630670,n01630670,NaN,ILSVRC2012_val_00003189.JPEG
deit_insup,1,1304,NaN,n01630670,n01630670,NaN,ILSVRC2012_val_00003702.JPEG
deit_insup,1,1305,NaN,n01630670,n01630670,NaN,ILSVRC2012_val_00005698.JPEG
deit_insup,1,1306,NaN,n01632458,n01630670,NaN,ILSVRC2012_val_00005868.JPEG
deit_insup,1,1307,NaN,n01630670,n01630670,NaN,ILSVRC2012_val_00006331.JPEG
deit_insup,1,1308,NaN,n01631663,n01630670,NaN,ILSVRC2012_val_00006582.JPEG
deit_insup,1,1309,NaN,n01630670,n01630670,NaN,ILSVRC2012_val_00006844.JPEG
deit_insup,1,1310,NaN,n01630670,n01630670,NaN,ILSVRC2012_val_00007257.JPEG
deit_insup,1,1311,NaN,n01630670,n01630670,NaN,ILSVRC2012_val_00007288.JPEG
deit_insup,1,1312,NaN,n01630670,n01630670,NaN,ILSVRC2012_val_00007528.JPEG
deit_insup,1,1313,NaN,n01630670,n01630670,NaN,ILSVRC2012_val_00007561.JPEG
deit_insup,1,1314,NaN,n01630670,n01630670,NaN,ILSVRC2012_val_00007904.JPEG
deit_insup,1,1315,NaN,n01630670,n01630670,NaN,ILSVRC2012_val_00008249.JPEG
deit_insup,1,1316,NaN,n01630670,n01630670,NaN,ILSVRC2012_val_00009000.JPEG
deit_insup,1,1317,NaN,n01630670,n01630670,NaN,ILSVRC2012_val_00009670.JPEG
deit_insup,1,1318,NaN,n01630670,n01630670,NaN,ILSVRC2012_val_00011650.JPEG
deit_insup,1,1319,NaN,n01632458,n01630670,NaN,ILSVRC2012_val_00015274.JPEG
deit_insup,1,1320,NaN,n01630670,n01630670,NaN,ILSVRC2012_val_00016183.JPEG
deit_insup,1,1321,NaN,n01630670,n01630670,NaN,ILSVRC2012_val_00016422.JPEG
deit_insup,1,1322,NaN,n02226429,n01630670,NaN,ILSVRC2012_val_00016695.JPEG
deit_insup,1,1323,NaN,n01630670,n01630670,NaN,ILSVRC2012_val_00019780.JPEG
deit_insup,1,1324,NaN,n01630670,n01630670,NaN,ILSVRC2012_val_00020393.JPEG
deit_insup,1,1325,NaN,n01689811,n01630670,NaN,ILSVRC2012_val_00020696.JPEG
deit_insup,1,1326,NaN,n01632458,n01630670,NaN,ILSVRC2012_val_00021017.JPEG
deit_insup,1,1327,NaN,n01630670,n01630670,NaN,ILSVRC2012_val_00021083.JPEG
deit_insup,1,1328,NaN,n01630670,n01630670,NaN,ILSVRC2012_val_00023488.JPEG
deit_insup,1,1329,NaN,n01629819,n01630670,NaN,ILSVRC2012_val_00023932.JPEG
